#Rx
# X(m), Y(m), Z(m), Distance(m), Power (dBm) Phase (deg)
1 680.192 620.392 138.636 131.208 -130.104 93.793
2 694.853 447.615 139.012 156.705 -122.386 -63.9114
3 806.23 539.724 135.828 112.891 -121.78 -71.0396
4 763.959 552.485 137.193 96.6507 -129.318 79.6894
5 748.577 739.203 134.048 201.239 -112.278 99.351
6 755.469 655.535 137.873 135.308 -113.019 -76.4155
7 827.516 362.804 131.367 231.137 -120.011 -160.381
8 790.486 528.45 136.757 108.877 -118.511 164.149
9 789.965 675.113 135.797 154.544 -117.99 -117.575
10 748.416 610.663 138.161 108.255 -120.042 32.7428
