#Rx
# X(m), Y(m), Z(m), Distance(m), Power (dBm) Phase (deg)
1 675.346 677.507 187.241 199.357 -142.36 -13.9822
2 699.211 396.253 187.509 223.658 -131.258 54.8805
3 841.008 474.059 183.261 190.314 -120.717 -163.385
4 671.589 626.859 188.566 177.019 -132.046 -116.316
5 831.146 539.129 184.056 166.484 -118 156.835
6 773.341 438.604 186.756 190.493 -120.569 -126.445
7 792.418 519.809 186.626 156.638 -131.482 -124.003
8 750.865 705.689 186.441 204.845 -115.273 -178.004
9 741.202 748.916 183.377 235.695 -120.01 65.8431
10 717.432 562.601 186.894 147.193 -135.129 166.036
