#Rx
# X(m), Y(m), Z(m), Distance(m), Power (dBm) Phase (deg)
1 689.504 510.652 137.924 121.36 -115.713 -89.3551
2 694.732 449.043 139.03 155.735 -122.127 -133.301
3 749.423 728.937 134.899 192.573 -120.755 128.59
4 778.913 580.222 137.51 102.541 -126.662 -44.7992
5 812.086 431.825 135.209 171.426 -110.018 -9.73341
6 794.165 681.628 135.121 160.274 -115.112 -102.596
7 786.052 669.043 136.264 149.271 -113.807 132.298
8 771.89 647.076 137.463 131.4 -119.58 54.2334
9 718.489 564.242 136.944 98.4377 -125.648 141.628
10 715.389 559.433 137.073 99.3831 -126.208 -3.76211
