#Rx
# X(m), Y(m), Z(m), Distance(m), Power (dBm) Phase (deg)
1 681.291 607.444 138.887 125.396 -124.922 -125.883
2 697.95 411.115 137.66 183.102 -138.945 -153.994
3 660.743 636.641 138.461 149.488 -123.005 1.31985
4 768.966 540.615 137.019 99.1592 -135.001 -99.5126
5 722.515 541.726 136.371 98.4524 -125.213 161.995
6 809.608 442.912 135.395 162.422 -114.379 -140.585
7 780.269 574.152 137.426 101.888 -118.929 171.369
8 744.061 736.125 134.501 198.705 -111.018 -163.608
9 740.668 751.305 133.193 211.771 -113.392 -134.828
10 725.092 820.981 99.764 268.001 -250 0
