#Rx
# X(m), Y(m), Z(m), Distance(m), Power (dBm) Phase (deg)
1 688.158 526.513 87.8546 80.7588 -118.289 179.982
2 698.996 398.791 87.5456 173.853 -150.091 164.967
3 783.161 526.232 86.7102 66.8852 -111.988 78.8629
4 749.733 725.167 85.1708 170.625 -120.229 -171.563
5 758.687 616.476 88.2214 73.7485 -107.851 85.8405
6 772.141 453.172 86.4586 118.431 -107.477 -96.8416
7 816.709 411.145 84.2204 169.989 -127.334 123.957
8 752.181 699.803 86.577 146.71 -117.014 87.7469
9 722.54 832.395 49.664 273.496 -250 0
