#Rx
# X(m), Y(m), Z(m), Distance(m), Power (dBm) Phase (deg)
1 673.267 702.006 85.6656 165.278 -136.232 143.441
2 687.441 534.961 88.0775 78.3021 -111.711 -146.27
3 696.357 429.89 88.985 146.805 -250 0
4 699.036 398.321 87.4061 174.242 -149.226 43.6748
5 659.464 543.234 90.4116 100.314 -129.643 25.1311
6 752.306 693.932 86.9016 141.234 -110.003 -143.734
7 817.78 406.353 83.9913 174.584 -135.141 -35.3928
8 803.84 468.713 85.6949 116.373 -106.486 -76.0394
9 776.953 588.986 87.532 61.8389 -107.15 -150.828
10 757.557 675.752 87.1314 124.587 -105.016 85.2413
