#Rx
# X(m), Y(m), Z(m), Distance(m), Power (dBm) Phase (deg)
1 689.611 509.386 187.943 163.977 -122.541 139.48
2 694.874 447.365 189.056 191.761 -128.597 148.978
3 749.513 727.843 184.989 220.182 -115.331 -3.08896
4 778.647 581.411 187.527 150.167 -138.099 -0.100009
5 811.796 433.125 185.244 201.979 -125.094 66.81
6 793.426 680.482 185.24 192.7 -119.002 -32.9088
7 785.323 667.913 186.331 184.044 -120.105 -23.7748
8 771.26 646.099 187.521 170.515 -122.652 161.912
9 718.205 563.8 186.925 147.102 -130.86 -104.325
10 715.327 559.336 187.075 147.771 -133.175 -62.6215
