#Rx
# X(m), Y(m), Z(m), Distance(m), Power (dBm) Phase (deg)
1 673.752 696.298 136 180.374 -135.67 -90.8356
2 687.918 529.344 137.863 115.771 -115.429 -62.7306
3 696.784 424.859 138.63 172.979 -134.321 -59.2878
4 699.126 397.257 137.407 194.127 -136.872 162.951
5 659.17 543.241 140.411 131.918 -118.082 108.105
6 752.742 688.647 137.054 159.786 -108.8 120.667
7 816.629 411.504 134.238 188.285 -114.229 -78.3943
8 802.697 473.824 135.774 139.056 -110.858 -130.382
9 775.54 595.31 137.62 105.654 -118.828 -79.2071
10 756.194 681.852 136.991 154.518 -112.333 -3.05258
