#Rx
# X(m), Y(m), Z(m), Distance(m), Power (dBm) Phase (deg)
1 694.109 456.376 89.7927 125.16 -146.232 -138.944
2 696.532 427.825 89.9971 148.9 -250 0
3 725.394 578.332 88.6529 53.7453 -104.749 14.011
4 750.217 719.291 86.5753 165.324 -110.603 -96.6613
5 757.236 634.097 88.9578 88.1633 -105.501 151.432
6 768.639 495.672 87.3881 81.6302 -103.482 138.424
7 771.844 456.775 87.4325 115.5 -108.498 -132.204
8 773.424 437.59 87.7947 133.363 -113.042 65.2377
9 803.753 469.104 86.8189 116.445 -111.982 125.875
10 721.845 569.447 88.3164 52.6278 -106.685 -101.716
