#Rx
# X(m), Y(m), Z(m), Distance(m), Power (dBm) Phase (deg)
1 697.236 419.529 107.842 162.408 -250 0
2 698.649 402.881 106.888 176.271 -250 0
3 822.447 490.8 104.034 120.068 -122.34 -40.2639
4 660.346 636.999 108.081 132.527 -124.172 -73.3477
5 744.262 541.206 106.043 66.2646 -98.5085 -137.959
6 660.088 543.219 109.727 110.357 -119.908 -40.1017
7 756.997 636.989 107.4 101.278 -110.724 -38.9634
8 773.298 439.121 106.233 139.341 -113.849 -169.493
9 808.139 449.481 105.025 141.358 -114.5 -147.38
10 722.617 832.053 69.1516 274.351 -250 0
