#Rx
# X(m), Y(m), Z(m), Distance(m), Power (dBm) Phase (deg)
1 682.792 589.759 89.4084 84.1373 -129.185 121.817
2 684.134 573.942 89.5673 78.9614 -118.751 -143.017
3 689.205 514.173 87.8683 85.9179 -120.273 73.3646
4 659.794 543.226 90.2596 99.9581 -118.43 94.8416
5 754.373 668.851 87.4869 118.069 -101.538 85.5388
6 755.637 653.497 87.893 104.369 -106.494 -11.128
7 760.719 591.809 87.7874 57.2476 -114.581 -39.0134
8 772.803 445.134 86.7627 125.975 -109.8 -172.748
9 799.287 489.079 86.0103 98.7944 -102.668 2.7973
10 778.436 582.355 87.58 59.8492 -106.981 57.9616
