#Rx
# X(m), Y(m), Z(m), Distance(m), Power (dBm) Phase (deg)
1 681.056 610.22 188.827 167.763 -132.723 84.8455
2 697.796 412.932 187.788 212.26 -130.82 -160.733
3 660.808 636.582 188.461 185.527 -137 -172.917
4 771.746 540.549 187.055 148.09 -132.32 -55.8589
5 724.918 541.669 186.403 146.566 -132.111 36.5779
6 810.128 440.584 185.359 196.913 -119.683 128.836
7 780.921 571.239 187.386 149.435 -131.34 164.079
8 744.648 733.5 184.703 224.32 -116.93 -142.888
9 741.254 748.684 183.395 235.519 -126.478 134.975
10 725.514 819.092 149.764 281.156 -250 0
