#Rx
# X(m), Y(m), Z(m), Distance(m), Power (dBm) Phase (deg)
1 685.979 552.199 93.4899 79.1264 -120.999 34.0892
2 746.079 559.676 91.9318 49.4093 -107.453 -46.8785
3 695.402 605.382 93.8252 85.1562 -127.083 94.4064
4 664.299 633.434 93.249 120.998 -130.353 -105.705
5 815.136 418.182 89.3106 164.563 -138.739 -129.644
6 775.445 595.733 92.5193 68.1428 -106.645 -139.872
7 772.002 611.137 92.593 76.1451 -106.143 -176.311
8 754.74 688.353 91.6945 137.727 -109.196 -124.124
9 729.42 801.621 54.5176 242.486 -250 0
