#Rx
# X(m), Y(m), Z(m), Distance(m), Power (dBm) Phase (deg)
1 699.191 396.488 95.964 178.278 -149.658 34.1048
2 716.258 586.572 96.3466 66.9896 -123.837 -142.728
3 668.395 629.739 97.0909 117.744 -140.687 106.859
4 836.057 539.011 92.1701 104.955 -125.069 41.3001
5 720.382 541.777 94.699 60.9151 -102.643 -121.182
6 759.248 609.674 96.456 74.5097 -110.895 -102.423
7 763.929 552.851 95.7604 56.6278 -99.2735 -25.8929
8 770.161 477.199 94.987 100.956 -107.134 98.8171
9 795.356 506.666 94.8382 89.5398 -105.075 -71.7935
10 782.184 565.587 95.763 64.6139 -101.892 15.0088
