#Rx
# X(m), Y(m), Z(m), Distance(m), Power (dBm) Phase (deg)
1 677.029 657.669 188.234 188.488 -132.483 -129.815
2 682.525 592.907 189.201 163.175 -125.167 -99.9243
3 671.47 542.947 189.542 165.71 -131.51 65.8163
4 751.444 704.396 186.459 203.954 -119.699 -63.5862
5 754.203 670.91 187.427 182.662 -122.953 -157.759
6 761.277 585.038 187.847 148.253 -137.391 13.1198
7 762.816 566.359 187.484 146.071 -132.967 -103.612
8 723.347 828.788 149.764 290.277 -250 0
9 720.098 566.737 187.187 147.118 -141.086 110.58
