#Rx
# X(m), Y(m), Z(m), Distance(m), Power (dBm) Phase (deg)
1 679.281 631.13 97.4775 111.941 -130.316 83.2694
2 690.443 499.581 97.0545 98.5427 -122.927 -108.496
3 749.143 732.327 93.2951 179.679 -128.624 -26.7734
4 750.531 715.479 94.8305 164.104 -116.611 -24.2971
5 765.561 533.035 95.4038 62.4984 -104.239 -100.749
6 769.497 485.264 95.3394 94.483 -108.223 75.1042
7 808.974 445.747 94.2567 140.341 -108.772 85.5607
8 769.552 622.094 96.8161 85.7793 -106.932 -105.504
9 730.939 794.827 88.5765 239.774 -119.145 -156.195
10 715.731 559.963 95.7442 61.2261 -102.439 126.071
