#Rx
# X(m), Y(m), Z(m), Distance(m), Power (dBm) Phase (deg)
1 679.38 629.965 188.673 175.194 -131.637 125.658
2 690.565 498.148 188.26 167.743 -139.871 138.3
3 749.245 731.09 184.58 222.401 -118.28 128.751
4 750.634 714.232 186.116 210.779 -127.491 -175.048
5 765.648 531.977 186.553 148.04 -138.157 -45.9066
6 769.602 483.992 186.524 164.531 -123.712 166.892
7 808.695 446.994 185.459 192.696 -122.895 -81.1624
8 769.274 623.34 187.989 160.355 -127.626 117.023
9 730.652 796.108 179.641 273.466 -118.837 66.4257
10 715.666 559.863 186.928 147.556 -133.087 -44.8195
