#Rx
# X(m), Y(m), Z(m), Distance(m), Power (dBm) Phase (deg)
1 694.248 454.747 141.634 153.556 -125.795 -158.684
2 696.635 426.61 141.728 173.411 -137.713 140.144
3 724.429 579.202 140.484 102.129 -137.791 -81.4053
4 750.336 717.845 138.511 184.79 -110.532 172.722
5 757.348 632.734 140.787 122.779 -128.853 82.7349
6 768.751 494.317 139.206 119.077 -113.502 154.684
7 771.926 455.776 139.25 144.536 -116.276 122.769
8 773.427 437.561 139.611 158.65 -117.757 -64.9061
9 803.463 470.398 138.655 143.429 -114.408 18.5969
10 721.41 568.772 140.105 101.013 -133.894 -91.8816
