#Rx
# X(m), Y(m), Z(m), Distance(m), Power (dBm) Phase (deg)
1 679.866 624.237 86.1525 101.998 -130.384 -24.5705
2 685.887 553.276 86.4755 74.7698 -122.636 98.5744
3 824.69 488.777 81.9489 113.222 -115.764 -0.127656
4 749.202 541.088 84.1783 45.8589 -95.676 17.4763
5 667.524 543.041 87.3763 91.9668 -129.135 5.55168
6 757.144 635.208 85.4873 87.3288 -105.636 -171.231
7 759.766 603.378 85.4833 62.5835 -103.707 -126.121
8 768.93 492.149 83.9322 82.7301 -105.51 45.5797
9 724.823 822.186 47.222 263.081 -250 0
10 799.242 689.504 82.0018 145.481 -250 0
