#Rx
# X(m), Y(m), Z(m), Distance(m), Power (dBm) Phase (deg)
1 688.187 526.169 110.137 95.1756 -115.722 110.777
2 748.985 734.248 106.714 185.72 -110.462 95.0974
3 750.336 717.847 107.932 170.917 -113.047 -24.1824
4 823.764 379.584 104.791 206.093 -117.124 159.475
5 815.07 418.477 106.866 170.116 -111.169 89.9376
6 752.742 697.292 109.03 152.701 -110.904 -97.5479
7 747.337 721.47 107.845 174.187 -112.692 20.7381
8 736.106 771.711 103.878 220.644 -112.204 125.198
9 766.602 638.873 110.154 105.921 -106.969 126.501
