#Rx
# X(m), Y(m), Z(m), Distance(m), Power (dBm) Phase (deg)
1 698.978 399.001 137.867 192.93 -131.538 -171.009
2 736.559 568.262 137.786 96.0846 -128.709 -124.136
3 711.095 591.228 138.861 107.119 -138.153 -81.1274
4 823.371 539.315 135.058 122.379 -117.495 108.359
5 750.061 721.183 135.862 186.303 -119.062 -178.019
6 815.828 415.088 134.771 185.432 -111.848 -57.2328
7 752.355 699.025 137.156 168.296 -109.244 -162.011
8 738.963 758.932 133.068 218.681 -114.098 138.847
9 788.355 672.616 136.555 152.703 -116.032 154.513
