#Rx
# X(m), Y(m), Z(m), Distance(m), Power (dBm) Phase (deg)
1 677.72 649.526 188.322 184.212 -148.203 89.8245
2 699.114 397.399 187.547 222.866 -134.566 -48.6052
3 739.086 541.33 186.628 145.473 -130.235 -99.4449
4 722.657 541.723 186.413 146.912 -138.837 -164.351
5 768.256 500.33 186.365 157.309 -129.732 88.8917
6 771.061 466.276 186.544 173.65 -123.443 -116.258
7 773.427 437.561 186.777 191.188 -122.351 -173.46
8 758.166 673.027 187.194 183.991 -120.979 121.018
9 724.314 824.459 149.804 286.213 -250 0
10 798.43 688.244 184.575 198.429 -119.67 -18.1009
