#Rx
# X(m), Y(m), Z(m), Distance(m), Power (dBm) Phase (deg)
1 678.266 643.091 88.5313 116.656 -123.09 92.882
2 691.675 485.064 88.3249 103.269 -118.18 124.428
3 667.556 543.04 89.856 93.1747 -116.789 -45.2134
4 773.112 441.386 86.6993 129.444 -110.91 -31.3873
5 756.861 638.641 87.8962 91.4391 -111.326 -135.938
6 759.03 612.32 88.1719 70.6463 -107.305 172.114
7 768.271 500.145 86.5051 77.5433 -108.073 -124.236
8 778.377 657.139 86.8682 111.583 -119.208 152.416
9 767.691 640.562 87.8655 94.9561 -106.546 165.028
10 716.781 561.592 86.9068 53.1615 -115.041 125.145
