#Rx
# X(m), Y(m), Z(m), Distance(m), Power (dBm) Phase (deg)
1 677.402 653.28 143.28 153.489 -126.182 97.466
2 699.029 398.399 142.545 195.769 -130.365 -23.2832
3 743.823 541.217 141.689 100.952 -132.103 147.307
4 727.126 541.616 141.47 102.395 -132.589 -12.4448
5 767.98 503.68 141.36 115.861 -119.422 86.6484
6 770.739 470.186 141.538 135.95 -115.423 118.067
7 773.412 437.737 141.773 159.843 -114.964 -48.6314
8 758.983 669.373 142.277 148.599 -112.33 -34.9082
9 724.787 822.347 104.803 270.471 -250 0
10 800.404 691.307 139.255 171.926 -114.377 -36.1522
