#Rx
# X(m), Y(m), Z(m), Distance(m), Power (dBm) Phase (deg)
1 698.139 408.887 141.18 186.706 -125.707 25.2096
2 728.54 541.582 140.027 100.752 -123.21 16.4642
3 760.665 592.472 141.473 105.168 -135.589 -57.7354
4 762.967 564.529 140.999 100.029 -121.97 -129.003
5 800.968 481.559 139.431 136.255 -110.46 38.4003
6 792.054 521.438 140.049 114.539 -120.108 19.9271
7 785.328 551.522 140.689 106.09 -125.894 135.041
8 724.546 823.422 103.341 271.201 -250 0
9 722.785 831.301 103.301 278.993 -250 0
10 715.327 559.337 140.612 102.774 -128.395 -1.35883
