#Rx
# X(m), Y(m), Z(m), Distance(m), Power (dBm) Phase (deg)
1 682.548 592.633 189.346 163.242 -131.458 94.4502
2 683.89 576.82 189.547 160.489 -133.895 -156.266
3 688.976 516.878 187.826 161.938 -125.039 153.615
4 659.882 543.224 190.253 171.819 -125.836 57.0312
5 754.189 671.083 187.422 182.763 -124.032 85.3739
6 755.452 655.75 187.871 174.308 -118.709 -1.46694
7 760.524 594.182 187.816 149.964 -131.833 -79.2372
8 772.69 446.504 186.735 185.447 -124.093 -54.1391
9 799.832 486.644 185.973 169.872 -129.549 2.44603
10 779.218 578.854 187.531 149.954 -130.743 -179.351
