#Rx
# X(m), Y(m), Z(m), Distance(m), Power (dBm) Phase (deg)
1 687.175 538.1 138.198 114.427 -125.05 -67.6572
2 699.194 396.45 137.408 194.788 -139.201 -61.3171
3 740.567 564.648 137.403 95.1481 -126.197 -145.826
4 667.057 630.946 138.662 143.206 -126.61 -99.1396
5 752.292 694.099 136.757 164.019 -109.834 -40.403
6 762.245 573.286 137.707 97.4691 -126.906 136.264
7 819.706 397.741 133.619 200.148 -111.331 -71.4757
8 793.721 513.977 136.396 114.924 -114.723 -23.7281
9 780.035 575.202 137.441 101.974 -118.425 -176.845
10 732.395 788.312 130.401 245.018 -115.629 -120.017
