#Rx
# X(m), Y(m), Z(m), Distance(m), Power (dBm) Phase (deg)
1 674.611 686.172 135.14 172.028 -127.824 -77.9031
2 691.226 490.358 136.689 129.295 -120.619 -151.566
3 795.423 515.172 134.725 113.812 -118.74 165.978
4 731.841 572.517 135.943 95.312 -126.295 83.8249
5 660.754 543.203 138.779 129.669 -123.334 10.848
6 659.2 543.24 138.858 130.75 -122.03 -104.252
7 748.504 740.086 132.282 201.231 -110.939 -45.6442
8 751.783 700.279 135.025 168.132 -116.871 -125.725
9 827.798 361.541 129.619 231.652 -116.726 158.47
10 810.487 438.978 133.681 164.665 -110.488 -153.583
