#Rx
# X(m), Y(m), Z(m), Distance(m), Power (dBm) Phase (deg)
1 674.495 687.543 87.4294 152.96 -126.382 -73.4045
2 691.104 491.795 89.0356 99.1405 -116.715 170.557
3 796.478 514.221 87.021 81.3869 -114.46 128.575
4 732.754 571.694 88.2985 49.0668 -102.235 -133.229
5 661.063 543.195 91.1269 99.2922 -116.315 82.3121
6 659.259 543.239 91.2277 100.881 -127.207 165.079
7 751.673 701.622 87.3555 148.657 -107.131 147.326
8 828.132 360.047 81.8753 219.717 -131.872 -165.216
9 810.789 437.628 86.0299 145.138 -112.495 -36.8676
