#Rx
# X(m), Y(m), Z(m), Distance(m), Power (dBm) Phase (deg)
1 775.916 532.766 111.262 79.7593 -105.109 -57.6408
2 750.038 556.106 111.658 69.3616 -104.738 -129.47
3 737.757 567.182 111.706 70.0409 -108.457 -157.185
4 663.466 634.185 113.028 131.476 -121.761 -141.641
5 730.428 541.537 110.775 72.3992 -108.525 176.021
6 767.24 512.655 110.751 85.7188 -107.34 -61.4175
7 772.889 444.086 111.044 137.31 -111.184 11.7192
8 758.497 671.549 111.769 131.887 -110.216 -74.262
9 795.934 504.079 110.743 101.363 -107.77 -54.9524
10 715.247 559.213 111.476 75.504 -106.934 -54.6017
