#Rx
# X(m), Y(m), Z(m), Distance(m), Power (dBm) Phase (deg)
1 682.67 591.196 145.004 124.443 -129.684 63.242
2 684.012 575.38 145.205 120.924 -134.72 -66.6234
3 689.091 515.525 143.473 124.127 -119.158 0.557749
4 659.823 543.225 145.884 135.614 -127.069 -44.4747
5 754.281 669.967 143.081 149.242 -116.456 124.117
6 755.545 654.622 143.508 138.717 -117.51 172.35
7 760.622 592.994 143.428 107.164 -141.304 45.9125
8 772.747 445.806 142.375 154.033 -117.151 60.0665
9 799.559 487.863 141.618 133.761 -116.212 -120.342
10 778.827 580.603 143.182 107.862 -122.279 178.069
