#Rx
# X(m), Y(m), Z(m), Distance(m), Power (dBm) Phase (deg)
1 682.867 588.869 100.848 90.669 -123.171 -176.609
2 695.884 435.463 100.523 146.236 -250 0
3 697.631 414.869 99.3453 163.191 -250 0
4 779.021 540.375 98.3995 67.8061 -103.144 42.8441
5 761.78 578.936 99.154 61.7625 -110.691 -14.2304
6 762.804 566.509 98.9059 59.192 -101.026 -144.688
7 764.004 551.935 98.7363 59.574 -102.761 19.8011
8 736.773 768.729 93.3726 215.031 -115.614 -16.7619
9 723.09 829.934 61.0842 271.539 -250 0
10 715.618 559.787 98.3492 63.558 -104.46 176.014
