#Rx
# X(m), Y(m), Z(m), Distance(m), Power (dBm) Phase (deg)
1 681.732 602.247 138.999 123.38 -129.469 140.36
2 684.315 571.803 139.486 115.525 -130.932 54.2714
3 686.18 549.83 138.786 113.791 -127.49 -12.0131
4 825.745 487.825 134.178 141.311 -115.793 65.1773
5 799.73 511.288 136.12 118.406 -120.948 -82.4195
6 788.738 521.202 136.749 110.5 -116.084 -124.296
7 737.354 567.545 137.412 95.5796 -132.361 57.1281
8 663.494 634.16 138.628 146.775 -124.061 -23.7299
9 796.764 500.367 136.285 122.165 -112.29 33.499
10 722.404 833.003 99.804 279.944 -250 0
