#Rx
# X(m), Y(m), Z(m), Distance(m), Power (dBm) Phase (deg)
1 688.904 517.727 111.693 99.1533 -115.397 -19.2287
2 789.644 520.385 110.441 89.9278 -103.284 51.4572
3 670.321 628.003 112.334 123.39 -128.846 78.4138
4 741.745 541.266 110.303 70.4493 -104.658 -41.6336
5 762.9 565.335 111.252 70.9765 -99.9805 107.039
6 765.369 535.369 110.439 74.7957 -105.356 147.254
7 825.131 373.47 105.994 212.329 -126.333 27.9629
8 786.656 545.584 110.71 80.6852 -105.6 -132.722
9 773.429 604.754 111.531 86.7021 -104.857 -3.38793
10 786.7 670.049 109.885 135.295 -113.368 139.132
