#Rx
# X(m), Y(m), Z(m), Distance(m), Power (dBm) Phase (deg)
1 674.727 684.803 86.7737 150.378 -122.12 -120.813
2 691.348 488.922 88.2644 100.654 -117.828 154.389
3 794.369 516.123 86.3509 78.6485 -111.249 114.249
4 730.928 573.341 87.5102 49.2845 -123.4 -34.7264
5 660.472 543.21 90.3521 99.4207 -119.979 152.491
6 659.17 543.241 90.4114 100.566 -122.042 -48.3928
7 748.621 738.664 83.953 183.423 -107.813 27.0522
8 751.894 698.94 86.6168 145.888 -106.34 -111.473
9 827.464 363.036 81.2849 216.642 -122.548 147.609
10 810.185 440.328 85.2555 142.363 -108.66 -161.389
