#Rx
# X(m), Y(m), Z(m), Distance(m), Power (dBm) Phase (deg)
1 698.344 406.47 87.5365 166.939 -250 0
2 724.442 541.68 86.4364 52.2373 -105.648 20.5744
3 761.008 588.303 87.8856 55.5338 -114.458 -10.0272
4 763.37 559.637 87.4038 48.1257 -112.605 -139.321
5 800.154 485.203 85.9503 102.044 -109.181 119.056
6 791.12 525.612 86.5821 71.83 -110.408 -87.532
7 784.453 555.439 87.2065 59.1269 -109.1 -157.829
8 724.091 825.458 49.804 266.46 -250 0
9 722.607 832.096 49.764 273.196 -250 0
10 715.231 559.188 87.0764 54.151 -117.622 -13.5371
