#Rx
# X(m), Y(m), Z(m), Distance(m), Power (dBm) Phase (deg)
1 697.345 418.248 111.874 165.137 -250 0
2 698.698 402.3 111.012 178.319 -179.807 60.7531
3 821.438 491.71 108.227 121.126 -118.625 5.37649
4 660.302 637.039 112.199 134.662 -124.692 -109.335
5 742.892 541.239 110.148 70.2476 -108.071 65.8669
6 659.97 543.222 113.858 113.01 -125.956 66.9038
7 757.095 635.803 111.534 103.11 -109.432 20.303
8 773.321 438.839 110.362 141.522 -115.323 -84.9962
9 807.844 450.804 109.168 142.091 -112.93 -94.066
10 722.585 832.195 73.2744 274.925 -250 0
