#Rx
# X(m), Y(m), Z(m), Distance(m), Power (dBm) Phase (deg)
1 699.201 396.371 187.508 223.574 -138.991 80.1604
2 715.137 587.583 188.001 151.252 -132.077 -45.6323
3 667.751 630.32 188.629 180.04 -132.123 -137.858
4 834.823 539.041 183.8 168.19 -127.137 -66.7896
5 718.953 541.811 186.225 147.351 -142.986 -177.814
6 759.364 608.262 187.983 153.839 -130.653 -45.558
7 764.05 551.376 187.259 146.111 -135.249 -94.4406
8 770.259 476.008 186.533 168.469 -127.321 -74.4684
9 795.02 508.167 186.406 160.598 -125.494 -47.6728
10 781.889 566.909 187.326 149.343 -131.694 -6.23374
