#Rx
# X(m), Y(m), Z(m), Distance(m), Power (dBm) Phase (deg)
1 779.349 529.67 86.7686 63.1639 -105.294 111.248
2 797.238 539.939 86.4529 70.4096 -117.911 66.2302
3 762.378 571.674 87.5473 49.3119 -112.224 -115.168
4 764.236 549.126 87.0885 49.3641 -108.796 -11.6234
5 769.238 488.406 86.3785 87.1144 -109.791 161.201
6 773.214 440.137 86.7248 130.62 -112.494 -162.191
7 810.939 436.959 85.2033 145.526 -108.802 114.869
8 807.724 451.337 85.4259 132.13 -106.401 94.9147
9 724.282 573.228 87.4145 51.5929 -110.588 -33.5367
10 717.417 562.579 86.8946 52.8433 -121.986 17.0632
