#Rx
# X(m), Y(m), Z(m), Distance(m), Power (dBm) Phase (deg)
1 684.525 569.33 87.2816 76.6127 -135.421 135.955
2 687.926 529.252 85.6499 78.6 -116.453 -62.2966
3 691.884 482.599 86.1542 104.034 -130.65 53.4378
4 744.931 560.711 85.1264 42.6221 -100.667 -31.1311
5 724.47 541.679 84.1874 50.3493 -99.1454 -45.2972
6 675.585 542.848 86.9443 85.0038 -138.163 -137.473
7 763.011 563.995 85.2464 46.1581 -108.8 22.5533
8 772.676 446.672 84.5219 123.769 -109.38 21.422
9 773.18 440.554 84.5069 129.494 -111.004 -16.5984
10 749.656 711.097 84.0781 156.749 -117.956 76.4105
