#Rx
# X(m), Y(m), Z(m), Distance(m), Power (dBm) Phase (deg)
1 699.211 396.253 134.469 193.536 -146.619 -15.1012
2 712.893 589.607 135.183 102.754 -120.588 137.79
3 666.548 631.405 135.578 141.67 -133.921 32.7473
4 832.351 539.1 130.933 125.337 -124.241 -147.09
5 716.1 541.879 133.277 97.2549 -122.612 161.935
6 759.596 605.443 134.91 103.852 -116.335 -171.056
7 764.293 548.435 134.127 94.1256 -121.824 -61.8441
8 770.455 473.63 133.496 127.804 -113.5 128.719
9 794.348 511.175 133.413 113.94 -119.145 28.5216
10 781.299 569.548 134.323 98.8143 -123.616 18.0638
