#Rx
# X(m), Y(m), Z(m), Distance(m), Power (dBm) Phase (deg)
1 698.139 408.887 109.064 171.912 -250 0
2 728.54 541.582 107.911 70.1402 -106.987 -125.328
3 760.665 592.472 109.357 75.7376 -107.018 29.2387
4 762.967 564.529 108.884 68.6443 -103.437 135.961
5 800.968 481.559 107.315 115.639 -106.15 -113.622
6 792.054 521.438 107.933 88.805 -108.802 -38.9981
7 785.328 551.522 108.574 77.3382 -105.167 -124.269
8 724.546 823.422 71.2254 265.848 -250 0
9 722.785 831.301 71.1854 273.796 -250 0
10 715.327 559.337 108.496 72.7572 -103.646 -72.2221
