#Rx
# X(m), Y(m), Z(m), Distance(m), Power (dBm) Phase (deg)
1 699.086 397.728 137.407 193.742 -133.955 12.4649
2 732.912 571.551 137.38 96.4492 -132.911 176.179
3 707.772 594.225 138.726 109.031 -125.868 -104.661
4 817.544 539.454 135.001 118.713 -116.031 112.897
5 748.743 737.184 134.216 199.522 -127.363 -13.0767
6 750.538 715.397 135.88 181.34 -128.759 105.338
7 814.555 420.782 134.581 180.433 -115.033 -115.047
8 751.2 704.189 136.576 172.23 -113.21 -70.6945
9 737.82 764.044 132.213 223.036 -113.251 -142.045
10 785.693 668.487 136.337 148.815 -113.71 -85.7814
