#Rx
# X(m), Y(m), Z(m), Distance(m), Power (dBm) Phase (deg)
1 675.257 678.554 137.18 167.39 -134.095 -163.29
2 699.208 396.293 137.509 194.966 -132.875 -101.03
3 841.952 473.208 133.195 157.991 -117.768 78.4864
4 672.256 626.257 138.573 138.035 -127.106 141.543
5 832.312 539.101 133.975 127.475 -124.997 -112.436
6 773.32 438.858 136.751 155.887 -121.786 0.309438
7 792.724 518.441 136.605 112.967 -117.502 -162.337
8 751.199 704.194 136.476 172.18 -116.401 -73.9106
9 741.503 747.566 133.481 208.506 -111.254 162.938
10 717.676 562.98 136.892 98.5721 -128.761 -146.846
