#Rx
# X(m), Y(m), Z(m), Distance(m), Power (dBm) Phase (deg)
1 686.039 613.826 188.85 167.044 -129.009 62.6723
2 661.8 543.178 190.259 170.876 -133.348 126.892
3 755.259 658.089 187.849 175.575 -143.934 95.7933
4 773.149 440.93 186.709 188.955 -123.574 -158.584
5 773.412 437.736 186.774 191.071 -122.964 -22.2138
6 804.317 466.578 185.662 180.602 -119.947 -29.7662
7 782.714 563.216 187.174 149.272 -135.817 83.5111
8 779.446 577.837 187.377 149.731 -146.581 -156.515
9 744.844 732.624 184.631 223.596 -116.941 -170.088
10 733.793 587.981 187.923 148.57 -137.912 -76.4814
