#Rx
# X(m), Y(m), Z(m), Distance(m), Power (dBm) Phase (deg)
1 777.951 530.93 86.83 61.8789 -105.177 -94.9754
2 751.974 554.36 87.2279 45.453 -122.756 22.2802
3 739.656 565.469 87.2766 45.5301 -113.357 -26.9746
4 664.228 633.497 88.6347 119.225 -130.306 52.6492
5 733.406 541.466 86.4137 49.2795 -118.582 -91.3862
6 766.983 515.779 86.3473 65.6982 -103.266 47.5244
7 772.785 445.345 86.6184 125.728 -108.653 -79.1457
8 759.089 668.902 87.4293 118.522 -106.861 -133.631
9 796.528 501.422 86.3014 88.8872 -107.265 -138.138
10 715.327 559.336 87.0746 54.0931 -118.524 -86.6264
