#Rx
# X(m), Y(m), Z(m), Distance(m), Power (dBm) Phase (deg)
1 687.175 538.1 188.198 158.622 -133.517 -168.669
2 699.194 396.45 187.408 223.452 -137.527 -105.09
3 740.567 564.648 187.403 145.055 -138.209 147.145
4 667.057 630.946 188.662 180.615 -143.134 51.4213
5 752.292 694.099 186.757 197.042 -127.129 168.252
6 762.245 573.286 187.707 146.692 -136.38 -32.2204
7 819.706 397.741 183.619 227.307 -118.984 124.637
8 793.721 513.977 186.396 158.413 -124.968 98.1783
9 780.035 575.202 187.441 149.634 -128.995 -138.744
10 732.395 788.312 180.401 267.061 -119.579 -153.014
