#Rx
# X(m), Y(m), Z(m), Distance(m), Power (dBm) Phase (deg)
1 688.187 526.169 137.882 116.533 -120.145 151.556
2 748.985 734.248 134.459 197.037 -110.102 -150.869
3 750.336 717.847 135.677 183.336 -112.783 -152.551
4 823.764 379.584 132.536 216.101 -117.757 -11.3901
5 815.07 418.477 134.611 182.427 -114.154 -152.403
6 752.742 697.292 136.775 166.667 -114.254 -2.61491
7 747.337 721.47 135.589 186.375 -110.74 42.6538
8 736.106 771.711 131.623 229.909 -111.156 -155.666
9 766.602 638.873 137.899 125.466 -114.56 91.0401
