#Rx
# X(m), Y(m), Z(m), Distance(m), Power (dBm) Phase (deg)
1 674.262 690.279 136.453 175.902 -121.812 100.624
2 690.86 494.671 138.174 128.286 -123.946 -84.3227
3 798.59 512.316 136.059 117.424 -117.43 120.931
4 734.588 570.04 137.454 96.1397 -136.748 -61.0469
5 661.757 543.179 140.262 130.125 -117.904 159.044
6 659.463 543.234 140.412 131.726 -119.017 -171.945
7 751.452 704.304 136.462 172.272 -112.592 -121.935
8 811.391 434.933 135.172 168.824 -111.395 -10.5115
