#Rx
# X(m), Y(m), Z(m), Distance(m), Power (dBm) Phase (deg)
1 698.298 407.016 87.97 166.568 -250 0
2 699.192 396.48 87.9824 176.058 -153.731 -141.161
3 661.467 635.988 89.182 122.87 -131.938 -85.3046
4 676.124 542.835 89.6901 86.0346 -114.948 176.421
5 666.849 543.057 90.3397 94.0125 -120.798 -143.977
6 758.535 618.328 88.6661 75.4212 -109.953 -173.165
7 816.433 412.381 84.7537 168.925 -128.644 86.8491
8 794.221 511.743 86.9353 81.4029 -112.546 65.9155
9 803.28 695.768 84.1479 153.123 -250 0
10 727.861 578.78 88.1178 52.5406 -116.162 54.4457
