#Rx
# X(m), Y(m), Z(m), Distance(m), Power (dBm) Phase (deg)
1 679.589 627.497 84.63 103.63 -141.944 35.2476
2 685.681 555.711 85.0811 73.9456 -125.564 172.78
3 826.617 487.038 80.328 115.116 -116.662 18.1704
4 751.805 541.026 82.7249 44.8316 -108.539 -119.345
5 669.123 543.003 85.7769 89.8324 -117.611 168.751
6 756.921 637.916 83.9737 88.9284 -109.119 86.9421
7 759.526 606.294 84.0306 63.6312 -104.574 -55.6612
8 768.698 494.961 82.4416 79.6164 -102.723 -146.274
9 725.165 820.652 45.7346 261.503 -250 0
10 800.823 691.957 80.2598 147.792 -250 0
