#Rx
# X(m), Y(m), Z(m), Distance(m), Power (dBm) Phase (deg)
1 698.232 407.792 86.3294 165.433 -250 0
2 699.187 396.539 86.3118 175.58 -143.826 -32.7047
3 661.698 635.779 87.5137 121.957 -141.305 -167.08
4 677.08 542.812 87.9527 84.316 -130.406 76.8923
5 667.48 543.042 88.625 92.619 -120.905 -119.023
6 758.422 619.691 86.9825 75.4585 -101.772 7.74675
7 816.691 411.224 83.0279 169.624 -132.781 150.737
8 794.556 510.243 85.2416 81.5981 -111.134 -122.473
9 728.471 579.725 86.4863 51.2745 -119.042 115.503
