#Rx
# X(m), Y(m), Z(m), Distance(m), Power (dBm) Phase (deg)
1 684.885 565.084 139.329 114.595 -121.463 -92.1179
2 688.249 525.439 137.714 116.579 -124.33 119.23
3 692.163 479.32 138.415 136.393 -118.45 59.9068
4 741.911 563.436 137.382 95.0087 -129.728 135.328
5 720.439 541.776 136.344 98.9333 -120.779 80.6142
6 672.925 542.912 139.34 122.496 -123.988 129.315
7 763.355 559.821 137.406 96.4567 -125.01 -15.1601
8 772.846 444.615 136.773 151.385 -118.432 66.5278
9 773.27 439.458 136.739 155.404 -118.801 -163.004
10 748.702 715.364 135.959 181.316 -115.089 37.539
