#Rx
# X(m), Y(m), Z(m), Distance(m), Power (dBm) Phase (deg)
1 677.72 649.526 137.242 147.134 -121.5 -141.472
2 699.114 397.399 136.467 193.553 -141.215 -28.53
3 739.086 541.33 135.548 95.1307 -125.41 -162.767
4 722.657 541.723 135.333 97.4295 -129.284 60.6499
5 768.256 500.33 135.285 112.519 -116.96 -164.811
6 771.061 466.276 135.463 134.351 -115.787 176.709
7 773.427 437.561 135.697 156.285 -117.285 122.624
8 758.166 673.027 136.114 147.249 -121.302 92.6585
9 724.314 824.459 98.7236 271.233 -250 0
10 798.43 688.244 133.494 165.744 -114.411 174.7
