#Rx
# X(m), Y(m), Z(m), Distance(m), Power (dBm) Phase (deg)
1 777.951 530.93 134.586 101.693 -127.875 115.966
2 751.974 554.36 134.984 92.8247 -124.034 53.6767
3 739.656 565.469 135.033 92.8874 -127.903 -40.9257
4 664.228 633.497 136.391 144.567 -134.569 109.026
5 733.406 541.466 134.17 94.3459 -130.108 43.8123
6 766.983 515.779 134.103 103.839 -122.176 -2.57475
7 772.785 445.345 134.374 149.331 -114.406 158.209
8 759.089 668.902 135.185 143.586 -109.029 171.944
9 796.528 501.422 134.057 119.845 -117.65 -134.454
10 715.327 559.336 134.831 97.2721 -122.659 -81.3907
