#Rx
# X(m), Y(m), Z(m), Distance(m), Power (dBm) Phase (deg)
1 699.208 396.293 136.961 194.7 -140.352 -8.25056
2 714.015 588.594 137.565 104.276 -122.123 -122.221
3 667.136 630.875 138.076 142.734 -130.925 165.785
4 833.586 539.07 133.339 127.893 -123.355 -51.9447
5 717.526 541.845 135.669 99.0783 -126.228 -80.2804
6 759.48 606.853 137.42 106.687 -119.218 -105.298
7 764.172 549.905 136.666 96.4098 -130.595 -125.392
8 770.357 474.819 135.987 128.781 -124.381 -58.3166
9 794.684 509.672 135.882 116.699 -113.278 122.861
10 781.594 568.227 136.797 101.104 -121.955 -81.4658
