#Rx
# X(m), Y(m), Z(m), Distance(m), Power (dBm) Phase (deg)
1 682.239 596.275 189.128 163.934 -128.207 35.9204
2 687.575 533.387 188.017 159.029 -123.567 -31.55
3 726.725 577.131 187.615 147.365 -131.906 -31.3055
4 752.958 686.018 187.09 191.907 -123.11 114.042
5 755.08 660.266 187.828 176.774 -124.122 122.951
6 769.321 623.128 187.991 160.28 -127.474 126.175
7 751.632 702.258 186.52 202.495 -116.385 5.33682
8 724.732 822.593 149.764 284.443 -250 0
9 783.021 664.343 186.442 181.578 -119.425 163.126
