#Rx
# X(m), Y(m), Z(m), Distance(m), Power (dBm) Phase (deg)
1 697.124 420.845 100.094 158.327 -250 0
2 698.597 403.486 99.0477 173.028 -250 0
3 823.455 489.891 96.1241 117.421 -112.933 -119.736
4 660.411 636.94 100.245 128.752 -143.219 -70.3144
5 745.631 541.173 98.2212 58.7946 -108.944 1.32724
6 660.235 543.215 101.876 105.641 -135.689 -141.081
7 756.899 638.178 99.5483 97.3774 -109.123 -87.4132
8 773.273 439.427 98.3869 135.655 -113.529 136.238
9 808.435 448.16 97.1644 139.255 -108.665 -112.383
10 722.655 831.883 61.3117 273.53 -250 0
