#Rx
# X(m), Y(m), Z(m), Distance(m), Power (dBm) Phase (deg)
1 684.525 569.33 103.925 87.3862 -124.007 157.377
2 687.926 529.252 102.293 88.8284 -110.54 98.6623
3 691.884 482.599 102.797 112.037 -123.448 13.4294
4 744.931 560.711 101.77 59.2599 -103.46 -15.0471
5 724.47 541.679 100.831 64.7989 -104.769 4.05413
6 675.585 542.848 103.588 94.7695 -128.674 -62.3051
7 763.011 563.995 101.89 61.8842 -103.1 -95.3978
8 772.676 446.672 101.165 130.36 -111.835 -179.851
9 773.18 440.554 101.15 135.805 -112.645 131.332
10 749.656 711.097 100.721 161.958 -115.703 80.5215
