#Rx
# X(m), Y(m), Z(m), Distance(m), Power (dBm) Phase (deg)
1 680.405 617.891 188.663 170.326 -125.104 101.749
2 695.06 445.178 189.05 193 -135.078 -153.839
3 803.496 539.79 186.018 155.9 -138.691 21.8459
4 764.14 550.283 187.125 146.058 -137.856 82.4789
5 748.786 736.659 184.259 226.506 -120.397 -32.4918
6 755.706 652.658 187.901 172.669 -116.37 44.5981
7 826.958 365.296 181.556 252.574 -119.422 -62.013
8 789.913 531.015 186.824 153.594 -126.155 -2.4738
9 788.372 672.642 185.951 187.23 -123.166 -5.48043
10 746.886 608.29 188.157 153.433 -128.076 92.5787
