#Rx
# X(m), Y(m), Z(m), Distance(m), Power (dBm) Phase (deg)
1 677.137 656.396 88.2479 126.984 -126.799 167.485
2 682.617 591.814 89.2241 84.9143 -135.468 95.0128
3 845.644 469.878 82.9397 140.301 -115.837 10.6083
4 670.566 542.968 89.6052 90.5377 -121.86 -85.4781
5 751.559 703.005 86.4993 149.717 -114.041 15.484
6 754.317 669.521 87.4675 118.676 -109.016 -105.124
7 761.399 583.559 87.829 53.336 -104.864 -1.27392
8 762.935 564.912 87.4667 48.2785 -122.364 -146.894
9 723.232 829.3 49.764 270.358 -250 0
10 719.728 566.163 87.163 52.162 -109.18 74.8363
