#Rx
# X(m), Y(m), Z(m), Distance(m), Power (dBm) Phase (deg)
1 688.187 526.169 133.617 113.07 -119.922 140.35
2 748.985 734.248 130.194 195.083 -115.144 -38.2011
3 750.336 717.847 131.412 181.206 -125.956 143.05
4 823.764 379.584 128.271 214.359 -114.077 -142.051
5 815.07 418.477 130.346 180.312 -118.639 -30.4635
6 752.742 697.292 132.51 164.292 -114.504 2.34243
7 747.337 721.47 131.324 184.282 -109.563 60.9392
8 736.106 771.711 127.358 228.29 -112.249 -90.7329
9 766.602 638.873 133.634 122.256 -121.007 1.12244
