#Rx
# X(m), Y(m), Z(m), Distance(m), Power (dBm) Phase (deg)
1 687.89 529.678 135.955 114.13 -120.115 101.004
2 748.641 738.42 132.053 199.64 -113.293 136.921
3 749.986 722.096 133.265 185.809 -109.598 -177.369
4 824.698 375.408 130.159 218.97 -115.243 -159.19
5 815.946 414.559 132.363 184.707 -118.233 -0.195783
6 753.613 693.395 134.804 162.382 -125.369 -100.23
7 748.129 717.929 133.801 182.422 -111.097 -175.637
8 736.852 768.372 129.819 226.104 -110.634 48.7606
9 768.409 641.677 135.783 125.979 -116.536 -128.505
