#Rx
# X(m), Y(m), Z(m), Distance(m), Power (dBm) Phase (deg)
1 686.324 548.128 88.5807 76.3113 -119.064 -22.91
2 742.968 562.482 87.2258 44.8736 -115.075 -137.675
3 692.66 607.855 89.0183 85.4226 -129.225 -87.9291
4 663.253 634.377 88.4852 120.381 -136.34 34.7379
5 847.635 538.734 82.9095 111.413 -116.279 88.5822
6 814.159 422.553 84.766 159.128 -137.359 -91.0709
7 774.565 599.669 87.8203 66.6437 -104.217 -127.698
8 771.123 615.068 87.894 75.6447 -109.824 -85.3408
9 753.899 692.115 86.8542 139.578 -105.179 31.2931
10 728.614 805.224 49.764 245.946 -250 0
