#Rx
# X(m), Y(m), Z(m), Distance(m), Power (dBm) Phase (deg)
1 686.946 540.798 188.301 158.452 -133.69 113.718
2 699.187 396.539 187.408 223.389 -132.399 151.481
3 742.83 562.606 187.368 144.902 -153.28 -2.89734
4 668.143 629.967 188.673 179.769 -134.844 -146.881
5 752.014 697.482 186.659 199.28 -120.996 126.698
6 761.982 576.478 187.745 147.024 -140.663 -125.924
7 820.263 395.247 183.5 229.2 -122.432 133.276
8 794.313 511.33 186.355 159.343 -129.866 -34.0806
9 780.559 572.855 187.408 149.503 -135.108 99.3795
10 732.964 785.765 180.636 264.981 -120.894 -9.20424
