#Rx
# X(m), Y(m), Z(m), Distance(m), Power (dBm) Phase (deg)
1 680.192 620.392 139.97 132.188 -131.764 100.068
2 694.853 447.615 140.346 157.53 -128.751 -8.80583
3 806.23 539.724 137.161 113.996 -118.833 -16.2517
4 763.959 552.485 138.527 97.9573 -140.962 -76.2068
5 748.577 739.203 135.382 201.849 -119.278 39.1036
6 755.469 655.535 139.207 136.251 -127.607 116.607
7 827.516 362.804 132.701 231.653 -115.525 147.383
8 790.486 528.45 138.09 110.034 -112.723 -55.3667
9 789.965 675.113 137.131 155.353 -112.112 -69.8754
10 748.416 610.663 139.495 109.435 -122.585 -73.8585
