#Rx
# X(m), Y(m), Z(m), Distance(m), Power (dBm) Phase (deg)
1 686.039 613.826 109.08 104.51 -131.036 119.534
2 661.8 543.178 110.489 109.508 -124.106 -4.55118
3 755.259 658.089 108.079 118.342 -115.822 -171.194
4 773.149 440.93 106.939 138.073 -111.898 113.908
5 773.412 437.736 107.004 140.917 -113.131 -43.8411
6 804.317 466.578 105.892 127.059 -109.733 137.08
7 782.714 563.216 107.405 74.6181 -107.241 42.9784
8 779.446 577.837 107.608 75.3175 -112.265 86.6249
9 744.844 732.624 104.861 183.539 -124.62 -16.236
10 733.793 587.981 108.154 72.3828 -105.813 -89.6324
