#Rx
# X(m), Y(m), Z(m), Distance(m), Power (dBm) Phase (deg)
1 689.611 509.386 141.738 124.839 -129.458 37.786
2 694.874 447.365 142.85 159.267 -121.284 70.0279
3 749.513 727.843 138.783 193.519 -117.291 -72.8419
4 778.647 581.411 141.321 106.232 -125.162 85.9691
5 811.796 433.125 139.038 172.457 -120.697 -118.467
6 793.426 680.482 139.034 161.491 -113.48 -17.9272
7 785.323 667.913 140.125 150.723 -116.247 -112.184
8 771.26 646.099 141.315 133.457 -118.661 158.335
9 718.205 563.8 140.72 102.125 -127.953 135.634
10 715.327 559.336 140.869 103.02 -126.166 76.1592
