#Rx
# X(m), Y(m), Z(m), Distance(m), Power (dBm) Phase (deg)
1 694.248 454.747 87.6576 125.673 -140.45 37.6027
2 696.635 426.61 87.7507 149.249 -250 0
3 724.429 579.202 86.5069 52.617 -123.855 44.268
4 750.336 717.845 84.5344 163.397 -111.653 171.776
5 757.348 632.734 86.8103 85.9089 -110.029 -106.827
6 768.751 494.317 85.2289 81.5816 -102.753 52.0971
7 771.926 455.776 85.2729 115.595 -110.192 161.06
8 773.427 437.561 85.6345 132.673 -109.079 117.205
9 803.463 470.398 84.6782 114.488 -110.648 33.82
10 721.41 568.772 86.1278 50.8227 -105.737 62.0329
