#Rx
# X(m), Y(m), Z(m), Distance(m), Power (dBm) Phase (deg)
1 698.361 406.268 137.537 186.897 -132.734 -66.8184
2 699.194 396.45 137.548 194.856 -137.878 15.7664
3 661.255 636.18 138.746 149.144 -128.594 152.891
4 675.198 542.857 139.321 121.147 -124.143 -31.0909
5 666.245 543.072 139.948 127.039 -121.431 -122.813
6 758.647 616.962 138.227 112.088 -123.6 123.394
7 816.174 413.538 134.375 186.581 -114.907 -17.6685
8 793.886 513.241 136.524 115.393 -114.156 -34.7882
9 802.499 694.557 133.911 172.19 -113.751 -24.5999
10 727.268 577.859 137.646 98.5802 -123.578 -41.2433
