#Rx
# X(m), Y(m), Z(m), Distance(m), Power (dBm) Phase (deg)
1 698.298 407.016 137.468 186.263 -137.838 -72.4909
2 699.192 396.48 137.481 194.799 -141.131 111.839
3 661.467 635.988 138.68 148.883 -125.62 75.4944
4 676.124 542.835 139.188 120.505 -123.72 -12.027
5 666.849 543.057 139.838 126.578 -126.597 70.2366
6 758.535 618.328 138.164 112.723 -126.919 -139.144
7 816.433 412.381 134.252 187.527 -117 137.72
8 794.221 511.743 136.434 116.074 -116.178 -137.563
9 803.28 695.768 133.646 173.255 -116.601 -101.929
10 727.861 578.78 137.616 98.6116 -149.454 -115.685
