#Rx
# X(m), Y(m), Z(m), Distance(m), Power (dBm) Phase (deg)
1 689.826 506.859 187.983 164.736 -126.449 145.748
2 695.152 444.09 189.108 193.669 -125.673 -179.277
3 749.693 725.653 185.171 218.638 -120.948 -4.37292
4 778.115 583.79 187.56 150.442 -134.847 -20.9596
5 811.214 435.724 185.284 200.195 -121.974 130.596
6 791.95 678.193 185.478 191.094 -119.316 114.212
7 783.872 665.662 186.464 182.531 -121.836 -153.029
8 769.999 644.143 187.637 169.451 -123.942 85.2015
9 717.676 562.98 186.892 147.15 -135.395 -67.1807
10 715.247 559.213 187.076 147.79 -135.95 -5.3205
