#Rx
# X(m), Y(m), Z(m), Distance(m), Power (dBm) Phase (deg)
1 774.899 533.684 186.877 149.551 -126.266 128.778
2 749.069 556.98 187.272 144.813 -137.08 143.847
3 736.809 568.037 187.32 145.31 -137.104 85.899
4 663.117 634.5 188.624 183.753 -135.884 -39.2993
5 728.938 541.572 186.355 146.008 -131.692 -59.13
6 767.369 511.089 186.353 153.414 -135.958 93.4989
7 772.938 443.499 186.656 187.276 -124.419 -83.3113
8 758.202 672.87 187.338 184.01 -133.272 -38.9168
9 795.637 505.406 186.363 161.661 -126.072 -28.5433
10 715.231 559.188 187.076 147.793 -137.412 144.247
