#Rx
# X(m), Y(m), Z(m), Distance(m), Power (dBm) Phase (deg)
1 688.052 527.77 137.903 116.164 -118.358 -65.8184
2 698.961 399.205 137.545 192.605 -133 166.134
3 784.158 525.333 136.695 107.36 -114.847 54.736
4 749.612 726.64 135.049 190.638 -126.724 -128.638
5 758.589 617.668 138.236 112.449 -120.086 89.3081
6 772.064 454.101 136.44 143.924 -119.249 -0.48846
7 817.004 409.827 134.157 189.711 -119.861 -179.288
8 752.499 698.381 136.61 167.462 -110.256 -173.792
9 722.559 832.31 99.664 279.226 -250 0
