#Rx
# X(m), Y(m), Z(m), Distance(m), Power (dBm) Phase (deg)
1 673.752 696.298 103.442 165.856 -134.859 36.1457
2 687.918 529.344 105.305 90.8559 -118.618 -64.2087
3 696.784 424.859 106.072 157.238 -250 0
4 699.126 397.257 104.85 180.463 -151.22 103.37
5 659.17 543.241 107.854 109.947 -120.067 170.143
6 752.742 688.647 104.497 142.955 -126.149 -34.8943
7 816.629 411.504 101.68 174.754 -116.632 -175.597
8 802.697 473.824 103.216 119.685 -111.101 -73.0349
9 775.54 595.31 105.062 77.6561 -106.841 -27.9676
10 756.194 681.852 104.433 137.057 -116.408 -117.107
