#Rx
# X(m), Y(m), Z(m), Distance(m), Power (dBm) Phase (deg)
1 697.124 420.845 138.447 175.938 -138.561 173.671
2 698.597 403.486 137.4 189.064 -128.977 -148.093
3 823.455 489.891 134.476 139.176 -114.74 -178.106
4 660.411 636.94 138.598 149.918 -131.551 41.2731
5 745.631 541.173 136.574 95.9165 -122.478 52.73
6 660.235 543.215 140.229 131.086 -125.596 4.97429
7 756.899 638.178 137.901 123.804 -117.069 -34.8931
8 773.273 439.427 136.739 155.429 -114.705 -109.406
9 808.435 448.16 135.517 158.285 -117.422 8.26609
10 722.655 831.883 99.664 278.802 -250 0
