#Rx
# X(m), Y(m), Z(m), Distance(m), Power (dBm) Phase (deg)
1 682.792 589.759 139.408 119.447 -132.115 142.619
2 684.134 573.942 139.567 115.928 -129.059 85.8769
3 689.205 514.173 137.868 120.068 -118.869 -97.6983
4 659.794 543.226 140.26 131.397 -121.984 39.9693
5 754.373 668.851 137.487 144.695 -112.347 158.719
6 755.637 653.497 137.893 133.902 -145.662 -131.468
7 760.719 591.809 137.787 101.507 -127.418 30.0321
8 772.803 445.134 136.763 150.975 -115.588 93.462
9 799.287 489.079 136.01 128.876 -114.475 -137.934
10 778.436 582.355 137.58 102.896 -125.443 -63.2258
