#Rx
# X(m), Y(m), Z(m), Distance(m), Power (dBm) Phase (deg)
1 680.405 617.891 110.034 110.507 -135.107 114.124
2 695.06 445.178 110.421 142.79 -139.206 -77.1482
3 803.496 539.79 107.389 89.0044 -118.053 147.09
4 764.14 550.283 108.496 69.1072 -102.024 -166.915
5 748.786 736.659 105.63 187.613 -110.586 115.83
6 755.706 652.658 109.272 114.609 -124.425 30.5079
7 826.958 365.296 102.927 219.345 -127.684 14.9094
8 789.913 531.015 108.195 84.1498 -107.982 -64.0235
9 788.372 672.642 107.322 136.684 -124.544 -142.926
10 746.886 608.29 109.528 82.5968 -105.122 -65.9744
