#Rx
# X(m), Y(m), Z(m), Distance(m), Power (dBm) Phase (deg)
1 680.82 612.997 88.369 95.7023 -135.298 67.2002
2 697.633 414.856 87.5258 159.472 -250 0
3 660.959 636.446 88.0645 123.086 -131.268 -161.365
4 774.523 540.483 86.693 56.084 -107.311 -60.3559
5 727.328 541.611 86.0358 50.7947 -101.196 -108.381
6 810.647 438.264 84.9251 144.211 -115.022 170.548
7 781.572 568.324 86.9469 57.5162 -103.25 35.0412
8 745.235 730.876 84.507 175.959 -109.956 159.581
9 741.839 746.064 83.1982 190.504 -118.394 -113.721
10 725.967 817.067 49.3656 257.937 -250 0
