#Rx
# X(m), Y(m), Z(m), Distance(m), Power (dBm) Phase (deg)
1 684.21 615.476 110.141 107.087 -132.037 108.892
2 661.09 543.195 111.636 110.764 -116.764 -124.711
3 755.509 655.052 109.205 116.498 -106.86 -65.9843
4 773.214 440.14 108.052 139.288 -113.227 36.493
5 773.424 437.59 108.104 141.552 -111.727 -96.945
6 803.65 469.562 107.035 125.157 -112.367 51.3543
7 782.161 565.693 108.536 75.4827 -110.876 71.6313
8 778.889 580.327 108.739 76.6771 -108.872 -8.52495
9 744.191 735.542 105.734 186.585 -118.388 23.214
10 732.364 585.763 109.159 72.7323 -110.603 -79.1509
