#Rx
# X(m), Y(m), Z(m), Distance(m), Power (dBm) Phase (deg)
1 693.695 461.264 88.6292 120.873 -133.137 -116.977
2 696.222 431.478 89.168 145.504 -250 0
3 728.283 575.726 87.5218 50.8529 -101.166 30.978
4 749.86 723.629 85.1292 169.129 -124.107 -107.084
5 756.9 638.177 87.8317 91.0125 -109.818 -6.51778
6 768.305 499.733 86.2966 77.7542 -114.93 160.338
7 771.583 459.941 86.342 112.189 -109.355 117.816
8 773.403 437.853 86.7024 132.75 -112.733 28.9993
9 804.622 465.215 85.6718 119.51 -109.382 -90.6785
10 723.242 571.614 87.3189 51.5697 -102.442 -131.088
