#Rx
# X(m), Y(m), Z(m), Distance(m), Power (dBm) Phase (deg)
1 699.169 396.746 87.408 175.669 -140.457 -23.9793
2 748.779 557.241 87.1368 44.7848 -122.694 -119.96
3 759.162 540.85 86.7505 49.96 -105.745 -17.4658
4 759.253 609.608 88.1395 68.6837 -105.969 121.362
5 749.935 709.849 86.4454 156.203 -109.321 -136.826
6 810.983 436.758 85.3402 145.756 -108.26 90.9205
7 780.447 573.357 87.4152 58.1402 -108.718 32.6177
8 719.391 565.641 87.0014 52.1355 -114.605 -0.910736
9 716.83 561.667 87.0059 53.22 -117.694 101.57
10 715.585 559.737 86.9296 53.8239 -116.874 -147.973
