#Rx
# X(m), Y(m), Z(m), Distance(m), Power (dBm) Phase (deg)
1 679.577 627.639 111.301 117.122 -131.779 -9.2996
2 690.808 495.279 110.908 109.139 -120.33 -19.5905
3 749.449 728.62 107.388 180.699 -113.943 133.974
4 750.839 711.744 108.926 165.708 -110.399 -71.086
5 765.822 529.87 109.091 75.7099 -110.749 -147.728
6 769.811 481.45 109.13 105.705 -106.663 -164.727
7 808.139 449.48 108.101 142.746 -107.715 -40.5135
8 768.716 625.833 110.574 97.3694 -108.482 148.227
9 730.079 798.671 72.3675 241.056 -250 0
10 715.586 559.737 109.533 73.5893 -101.632 15.1415
