#Rx
# X(m), Y(m), Z(m), Distance(m), Power (dBm) Phase (deg)
1 682.963 587.743 139.452 118.905 -127.201 58.0966
2 696.006 434.023 139.125 166.438 -119.514 -52.0882
3 697.715 413.884 137.856 181.023 -155.223 -154.658
4 777.767 540.405 136.994 101.576 -125.486 -6.9976
5 761.864 577.919 137.722 98.1604 -127.789 -4.60487
6 762.889 565.476 137.473 96.5955 -126.695 34.8259
7 764.091 550.88 137.283 96.9012 -124.848 -20.2808
8 736.462 770.117 131.846 228.514 -111.684 -91.4609
9 723.01 830.293 99.664 277.222 -250 0
10 715.586 559.737 136.93 99.1847 -123.353 -44.3289
