#Rx
# X(m), Y(m), Z(m), Distance(m), Power (dBm) Phase (deg)
1 676.921 658.943 143.696 157.472 -122.327 43.1936
2 682.432 593.998 144.684 125.034 -125.73 -134.419
3 672.411 542.924 144.983 127.298 -118.885 -123.393
4 751.33 705.784 141.926 176.528 -114.952 154.66
5 754.089 672.295 142.894 150.831 -117.296 -10.1605
6 761.156 586.515 143.371 105.371 -134.063 169.64
7 762.697 567.808 143.008 102.161 -132.04 -57.4853
8 723.469 828.241 105.271 276.402 -250 0
9 720.482 567.333 142.718 103.653 -126.44 -129.345
