#Rx
# X(m), Y(m), Z(m), Distance(m), Power (dBm) Phase (deg)
1 682.867 588.869 110.372 97.0701 -123.611 -52.7214
2 695.884 435.463 110.048 150.268 -250 0
3 697.631 414.869 108.87 166.747 -250 0
4 779.021 540.375 107.924 75.847 -116.088 33.9433
5 761.78 578.936 108.679 70.598 -107.127 -4.1823
6 762.804 566.509 108.43 68.326 -106.987 -25.7579
7 764.004 551.935 108.261 68.6337 -102.174 103.816
8 736.773 768.729 102.897 217.481 -118.54 -68.2949
9 723.09 829.934 70.6087 272.356 -250 0
10 715.618 559.787 107.874 72.0677 -102.197 -52.8778
