#Rx
# X(m), Y(m), Z(m), Distance(m), Power (dBm) Phase (deg)
1 782.095 527.193 104.346 78.7477 -106.32 171.8
2 802.049 539.824 103.738 85.4151 -117.439 138.323
3 762.011 576.128 105.22 66.6883 -105.108 -45.2224
4 763.891 553.307 104.839 65.1771 -111.443 121.567
5 768.879 492.764 103.993 93.9288 -109.246 29.1237
6 773.113 441.367 104.319 136.483 -114.332 -153.148
7 811.768 433.248 102.766 154.986 -118.513 154.219
8 808.554 447.624 102.988 142.117 -126.942 -134.405
9 726.039 575.953 105.147 67.6356 -105.498 68.3874
10 718.18 563.761 104.543 68.0778 -104.792 -126.216
