#Rx
# X(m), Y(m), Z(m), Distance(m), Power (dBm) Phase (deg)
1 685.124 614.652 136.559 124.641 -120.567 -95.1516
2 661.433 543.187 138.012 128.656 -125.156 -86.6729
3 755.384 656.571 135.59 134.445 -115.356 -57.8859
4 773.183 440.522 134.444 153.177 -116.044 151.855
5 773.419 437.649 134.502 155.505 -118.805 112.543
6 803.983 468.071 133.412 141.681 -114.288 -15.9099
7 782.437 564.455 134.918 99.42 -142.577 -52.5021
8 779.167 579.084 135.121 100.193 -124.77 -5.80224
9 744.518 734.082 132.245 195.849 -117.29 -139.461
10 733.072 586.862 135.604 97.7378 -127.714 151.654
