#Rx
# X(m), Y(m), Z(m), Distance(m), Power (dBm) Phase (deg)
1 686.952 613.003 134.472 121.451 -127.972 61.6088
2 662.192 543.168 135.836 126.548 -119.503 -11.3608
3 755.134 659.606 133.439 135.168 -113.396 -35.4097
4 773.113 441.365 132.304 151.228 -114.86 -127.163
5 773.403 437.851 132.376 154.093 -114.254 20.0676
6 804.65 465.091 131.243 142.544 -109.424 95.8883
7 782.99 561.98 132.762 97.5457 -118.112 40.2266
8 779.724 576.594 132.965 97.94 -115.242 -0.16868
9 745.169 731.167 130.348 192.384 -111.288 41.5844
10 734.529 589.122 133.575 96.281 -121 57.0305
