#Rx
# X(m), Y(m), Z(m), Distance(m), Power (dBm) Phase (deg)
1 674.495 687.543 136.613 173.876 -134.837 83.609
2 691.104 491.795 138.219 129.704 -129.572 93.1922
3 796.478 514.221 136.205 115.845 -124.751 167.855
4 732.754 571.694 137.482 96.5886 -128.086 -70.1984
5 661.063 543.195 140.311 130.61 -126.651 -125.79
6 659.259 543.239 140.411 131.86 -127.338 94.8377
7 751.673 701.622 136.539 170.082 -109.775 27.3302
8 828.132 360.047 131.059 233.592 -115.238 -10.3109
9 810.789 437.628 135.214 166.625 -110.422 91.0934
