#Rx
# X(m), Y(m), Z(m), Distance(m), Power (dBm) Phase (deg)
1 677.137 656.396 93.6742 129.037 -134.333 150.251
2 682.617 591.814 94.6505 88.0154 -128.896 -121.688
3 845.644 469.878 88.366 141.959 -117.957 -104.266
4 670.566 542.968 95.0316 93.4745 -120.91 51.6114
5 751.559 703.005 91.9256 151.4 -124.777 110.804
6 754.317 669.521 92.8939 120.835 -110.978 150.61
7 761.399 583.559 93.2553 58.016 -105.392 1.0481
8 762.935 564.912 92.893 53.3668 -101.798 -89.5808
9 723.232 829.3 55.1903 270.558 -250 0
10 719.728 566.163 92.5893 56.8751 -105.167 147.468
