#Rx
# X(m), Y(m), Z(m), Distance(m), Power (dBm) Phase (deg)
1 777.951 530.93 104.926 75.8949 -111.612 -154.249
2 751.974 554.36 105.324 63.3358 -103.519 -3.61445
3 739.656 565.469 105.373 63.405 -100.195 2.29933
4 664.228 633.497 106.731 127.323 -127.936 134.869
5 733.406 541.466 104.51 65.9124 -106.563 56.8852
6 766.983 515.779 104.444 78.9292 -107.398 39.7812
7 772.785 445.345 104.715 133.158 -111.733 130.184
8 759.089 668.902 105.526 126.492 -121.206 -29.1039
9 796.528 501.422 104.398 99.0598 -107.147 -45.6655
10 715.327 559.336 105.171 69.7564 -105.78 157.199
