#Rx
# X(m), Y(m), Z(m), Distance(m), Power (dBm) Phase (deg)
1 686.039 613.826 91.2794 94.1791 -130.799 -15.1797
2 661.8 543.178 92.689 99.4446 -124.531 154.652
3 755.259 658.089 90.2786 109.489 -107.754 3.90231
4 773.149 440.93 89.1385 130.72 -113.018 146.853
5 773.412 437.736 89.2037 133.712 -111.612 127.053
6 804.317 466.578 88.0918 119.185 -108.103 -50.1764
7 782.714 563.216 89.6043 59.7903 -110.966 -101.429
8 779.446 577.837 89.8072 60.6014 -100.443 152.113
9 744.844 732.624 87.0607 178.281 -117.49 179.111
10 733.793 587.981 90.3533 56.7418 -112.094 -73.6819
