#Rx
# X(m), Y(m), Z(m), Distance(m), Power (dBm) Phase (deg)
1 682.369 594.741 139.161 120.808 -125.121 -97.8257
2 687.671 532.253 137.974 115.252 -125.052 9.25348
3 725.639 578.111 137.631 98.9346 -127.016 100.8
4 753.042 684.999 137.12 156.917 -123.746 -122.04
5 755.164 659.242 137.838 137.905 -117.048 -20.7347
6 769.01 624.518 137.98 117.49 -118.559 3.59892
7 751.317 703.669 136.488 171.75 -110.542 -19.881
8 724.548 823.415 99.764 270.415 -250 0
9 782.16 663.007 136.521 144.061 -112.099 -164.887
