#Rx
# X(m), Y(m), Z(m), Distance(m), Power (dBm) Phase (deg)
1 679.866 624.237 142.04 135.66 -136.424 138.289
2 685.887 553.276 142.363 116.733 -121.883 52.5685
3 824.69 488.777 137.836 142.651 -116.454 -71.7203
4 749.202 541.088 140.065 99.4099 -130.005 -6.96412
5 667.524 543.041 143.263 128.82 -123.207 76.3499
6 757.144 635.208 141.374 124.707 -116.068 60.5479
7 759.766 603.378 141.37 108.82 -120.823 -91.1219
8 768.93 492.149 139.819 120.814 -116.427 -124.604
9 724.823 822.186 103.109 269.927 -250 0
10 799.242 689.504 137.889 169.413 -115.484 -1.07231
