#Rx
# X(m), Y(m), Z(m), Distance(m), Power (dBm) Phase (deg)
1 673.388 700.577 133.731 182.629 -136.322 171.651
2 687.561 533.556 136.006 113.373 -119.106 124.608
3 696.464 428.63 136.878 169.159 -130.733 22.6216
4 699.062 398.015 135.389 192.526 -135.002 22.7327
5 659.347 543.236 138.394 130.31 -120.114 -57.9571
6 752.415 692.609 134.922 161.752 -120.468 -73.7726
7 817.493 407.639 132.035 190.624 -114.705 -142.858
8 803.554 469.99 133.697 140.452 -109.507 -24.6124
9 776.6 590.568 135.536 102.577 -117.737 -122.396
10 757.216 677.28 135.078 149.823 -120.489 -97.9775
