#Rx
# X(m), Y(m), Z(m), Distance(m), Power (dBm) Phase (deg)
1 680.192 620.392 188.636 171.25 -121.619 57.9243
2 694.853 447.615 189.012 191.587 -123.44 73.0647
3 806.23 539.724 185.828 156.764 -132.03 135.894
4 763.959 552.485 187.193 145.974 -132.087 -8.20808
5 748.577 739.203 184.048 228.363 -128.933 105.879
6 755.469 655.535 187.873 174.193 -119.536 -17.8318
7 827.516 362.804 181.367 254.576 -116.128 58.2591
8 790.486 528.45 186.757 154.2 -131.89 -67.9634
9 789.965 675.113 185.797 188.975 -122.244 -118.415
10 748.416 610.663 188.161 154.217 -129.199 91.0149
