#Rx
# X(m), Y(m), Z(m), Distance(m), Power (dBm) Phase (deg)
1 699.037 398.307 137.406 193.269 -137.461 -48.4727
2 734.735 569.907 137.352 96.0076 -140.033 78.0192
3 709.434 592.727 138.563 107.85 -134.578 0.537
4 820.457 539.384 134.799 120.348 -117.374 10.1339
5 748.499 740.142 133.971 202.039 -110.527 28.071
6 750.3 718.291 135.64 183.699 -117.717 28.1347
7 815.192 417.933 134.445 182.812 -110.776 -169.798
8 751.777 701.607 136.635 170.126 -114.718 23.471
9 738.391 761.491 132.409 220.762 -112.269 -134.078
10 787.025 670.554 136.215 150.61 -112.612 145.566
