#Rx
# X(m), Y(m), Z(m), Distance(m), Power (dBm) Phase (deg)
1 698.093 409.429 187.541 214.469 -133.111 -73.6516
2 699.169 396.744 187.408 223.242 -135.605 103.27
3 662.224 635.305 188.615 184.478 -132.799 -98.8013
4 679.073 542.765 188.909 161.88 -133.365 -56.8574
5 668.827 543.01 189.627 166.984 -125.309 67.1727
6 758.197 622.423 188.053 158.821 -129.539 -160.121
7 817.208 408.914 184.014 218.9 -117.595 -151.554
8 795.225 507.252 186.292 160.856 -125.852 -33.5384
9 729.736 581.688 187.664 147.65 -138.063 -1.0436
