#Rx
# X(m), Y(m), Z(m), Distance(m), Power (dBm) Phase (deg)
1 677.295 654.533 94.2261 127.789 -134.645 -153.381
2 698.996 398.784 93.5037 175.496 -150.047 81.7776
3 745.402 541.179 92.6687 53.5643 -99.05 79.3748
4 728.616 541.58 92.4492 55.9826 -104.412 75.1115
5 767.888 504.796 92.318 77.4988 -106.304 -133.074
6 770.627 471.541 92.4959 104.541 -110.006 -141.338
7 773.402 437.855 92.7295 134.874 -111.653 -42.1781
8 759.255 668.156 93.2646 120.2 -117.43 -163.201
9 724.956 821.588 55.7622 262.767 -250 0
10 801.061 692.325 90.1092 151.017 -250 0
