#Rx
# X(m), Y(m), Z(m), Distance(m), Power (dBm) Phase (deg)
1 689.02 516.359 87.9341 84.9317 -110.816 -0.079811
2 788.482 521.433 86.6451 72.38 -118.021 160.439
3 669.71 628.554 88.548 112.419 -133.924 -15.2354
4 740.527 541.295 86.5068 48.1076 -112.318 75.7765
5 763.018 563.911 87.4548 48.2049 -112.663 90.1668
6 765.479 534.03 86.6175 54.7557 -108.941 -172.745
7 824.825 374.839 82.317 205.138 -129.338 34.2521
8 786.321 547.082 86.9506 61.3711 -111.77 136.042
9 773.127 606.103 87.7696 70.0613 -102.708 142.188
10 785.978 668.929 86.171 123.971 -121.377 -142.083
