#Rx
# X(m), Y(m), Z(m), Distance(m), Power (dBm) Phase (deg)
1 694.109 456.376 104.094 131.231 -143.895 160.777
2 696.532 427.825 104.299 154.057 -250 0
3 725.394 578.332 102.954 66.4268 -103.874 60.7264
4 750.217 719.291 100.877 169.695 -110.41 -157.163
5 757.236 634.097 103.259 96.4648 -107.709 139.781
6 768.639 495.672 101.69 90.2845 -113.998 -57.5725
7 771.844 456.775 101.734 121.775 -113.402 69.8758
8 773.424 437.59 102.096 138.871 -113.801 -142.606
9 803.753 469.104 101.12 122.601 -106.877 -52.4537
10 721.845 569.447 102.618 65.4525 -103.165 78.8896
