#Rx
# X(m), Y(m), Z(m), Distance(m), Power (dBm) Phase (deg)
1 699.208 396.293 87.5085 176.106 -152.247 -50.2799
2 714.015 588.594 88.1116 62.6013 -125.266 165.34
3 667.136 630.875 88.623 115.619 -128.314 -161.006
4 833.586 539.07 83.8862 99.0967 -117.274 22.6769
5 717.526 541.845 86.2166 55.2216 -113.652 -36.7639
6 759.48 606.853 87.9667 66.6486 -107.451 -69.725
7 764.172 549.905 87.2128 49.2873 -114.107 159.278
8 770.357 474.819 86.534 98.924 -107.786 52.0006
9 794.684 509.672 86.4291 82.6478 -111.659 -101.527
10 781.594 568.227 87.344 57.8229 -110.707 -98.4306
