#Rx
# X(m), Y(m), Z(m), Distance(m), Power (dBm) Phase (deg)
1 677.78 648.828 137.383 146.774 -130.297 138.66
2 691.25 490.076 137.159 129.78 -121.045 -75.8471
3 670.461 542.971 138.566 123.37 -118.715 60.0256
4 772.943 443.432 135.571 151.564 -114.219 110.323
5 756.514 642.862 136.769 125.932 -119.983 -54.2145
6 758.611 617.4 137.146 111.387 -116.998 -22.6875
7 767.797 505.901 135.412 109.681 -118.564 -164.259
8 781.628 662.182 135.483 142.66 -116.958 -0.894036
9 770.668 645.181 136.628 129.306 -116.319 143.882
10 717.657 562.95 135.804 97.5357 -127.681 30.5849
