#Rx
# X(m), Y(m), Z(m), Distance(m), Power (dBm) Phase (deg)
1 698.232 407.792 137.426 185.622 -138.552 -56.4418
2 699.187 396.539 137.408 194.715 -133.667 45.1632
3 661.698 635.779 138.61 148.6 -127.14 135.045
4 677.08 542.812 139.049 119.844 -124.101 52.515
5 667.48 543.042 139.721 126.097 -121.18 -73.4627
6 758.422 619.691 138.079 113.35 -114.393 44.2883
7 816.691 411.224 134.124 188.474 -110.987 -10.3968
8 794.556 510.243 136.338 116.767 -113.861 -76.4399
9 728.471 579.725 137.583 98.6539 -129.336 55.2004
