#Rx
# X(m), Y(m), Z(m), Distance(m), Power (dBm) Phase (deg)
1 682.867 588.869 189.428 162.481 -130.951 -33.3534
2 695.884 435.463 189.103 198.762 -128.742 31.4144
3 697.631 414.869 187.925 211.055 -138.89 48.7759
4 779.021 540.375 186.979 149.476 -127.856 122.621
5 761.78 578.936 187.734 147.288 -131.992 -160.981
6 762.804 566.509 187.486 146.078 -135.807 70.8295
7 764.004 551.935 187.316 146.13 -134.56 90.2843
8 736.773 768.729 181.952 251.184 -119.937 60.5227
9 723.09 829.934 149.664 291.322 -250 0
10 715.618 559.787 186.929 147.567 -131.683 139.93
