#Rx
# X(m), Y(m), Z(m), Distance(m), Power (dBm) Phase (deg)
1 687.175 538.1 94.1143 81.2501 -112.758 -176.473
2 699.194 396.45 93.3251 177.539 -149.198 21.9692
3 740.567 564.648 93.3194 51.2966 -103.04 91.7231
4 667.057 630.946 94.579 118.216 -131.671 11.2486
5 752.292 694.099 92.6736 143.308 -110.04 101.672
6 762.245 573.286 93.6233 55.2414 -100.006 -179.943
7 819.706 397.741 89.5362 184.312 -135.464 52.8157
8 793.721 513.977 92.3125 82.9118 -120.118 173.663
9 780.035 575.202 93.3576 63.0363 -106.768 6.38657
10 732.395 788.312 86.3174 232.872 -117.833 120.269
