#Rx
# X(m), Y(m), Z(m), Distance(m), Power (dBm) Phase (deg)
1 698.361 406.268 137.397 186.826 -131.524 -140.935
2 699.194 396.45 137.408 194.788 -139.201 -61.3171
3 661.255 636.18 138.606 149.053 -128.86 -120.744
4 675.198 542.857 139.181 121.035 -130.417 -168.585
5 666.245 543.072 139.808 126.932 -118.005 -115.955
6 758.647 616.962 138.087 111.969 -117.212 -141.016
7 816.174 413.538 134.235 186.512 -110.825 -102.19
8 793.886 513.241 136.384 115.279 -113.621 -119.065
9 802.499 694.557 133.771 172.116 -114.766 -65.8228
10 727.268 577.859 137.506 98.445 -129.37 -69.4185
