#Rx
# X(m), Y(m), Z(m), Distance(m), Power (dBm) Phase (deg)
1 674.379 688.908 133.671 173.363 -129.931 -36.1052
2 690.982 493.234 135.335 126.88 -118.273 -133.965
3 797.535 513.268 133.27 114.345 -114.106 -60.7518
4 733.67 570.868 134.606 93.538 -147.327 -134.303
5 661.398 543.187 137.425 128.244 -119.674 -10.2772
6 659.347 543.236 137.55 129.691 -121.521 156.643
7 751.562 702.965 133.639 169.623 -121.553 14.6294
8 828.466 358.552 128.084 233.886 -114.494 125.434
9 811.09 436.282 132.331 166.157 -112.06 -70.203
