#Rx
# X(m), Y(m), Z(m), Distance(m), Power (dBm) Phase (deg)
1 677.508 652.031 112.654 134.459 -120.261 40.3054
2 699.059 398.039 111.905 182.342 -143.375 6.31099
3 742.243 541.254 111.028 71.1224 -106.356 0.803312
4 725.638 541.651 110.811 73.5829 -113.168 -160.831
5 768.072 502.565 110.721 91.8523 -107.366 -43.0493
6 770.849 468.856 110.9 116.619 -113.169 -161.339
7 773.419 437.649 111.134 142.93 -111.577 2.22286
8 758.71 670.593 111.609 131.016 -111.163 57.9763
9 724.623 823.076 74.1629 265.833 -250 0
10 799.745 690.285 108.722 155.708 -135.052 -174.725
