#Rx
# X(m), Y(m), Z(m), Distance(m), Power (dBm) Phase (deg)
1 679.676 626.475 88.7104 104.647 -150.809 -12.9961
2 690.93 493.844 88.3272 97.505 -116.46 -56.1895
3 749.55 727.385 84.8871 172.699 -111.402 70.1723
4 750.941 710.499 86.4226 156.848 -106.873 -160.718
5 765.909 528.812 86.4547 57.4373 -111.554 -128.549
6 769.916 480.179 86.5279 94.2328 -104.08 109.108
7 807.861 450.725 85.5165 132.726 -108.918 -97.6605
8 768.438 627.077 87.9605 84.0674 -117.265 125.827
9 729.793 799.949 49.764 240.605 -250 0
10 715.569 559.712 86.9299 53.8333 -116.457 122.756
