#Rx
# X(m), Y(m), Z(m), Distance(m), Power (dBm) Phase (deg)
1 676.705 661.488 88.0401 131.047 -143.36 92.2718
2 682.247 596.181 89.13 86.866 -137.169 -154.122
3 674.4 542.877 89.3368 87.2428 -116.277 66.704
4 751.101 708.562 86.3386 154.972 -106.729 11.7768
5 753.86 675.072 87.307 123.73 -107.216 -38.766
6 760.912 589.47 87.8995 56.1232 -114.118 23.6298
7 762.459 570.698 87.5357 49.1063 -110.111 -57.2442
8 723.736 827.048 49.764 268.073 -250 0
9 721.294 568.592 87.2632 51.8252 -107.384 166.085
