#Rx
# X(m), Y(m), Z(m), Distance(m), Power (dBm) Phase (deg)
1 688.187 526.169 87.8815 80.8961 -117.098 -107.314
2 748.985 734.248 84.4587 179.248 -107.509 -49.4025
3 750.336 717.847 85.6771 163.697 -107.68 116.711
4 823.764 379.584 82.5356 200.495 -138.663 53.5344
5 815.07 418.477 84.6111 163.006 -120.126 79.8085
6 752.742 697.292 86.7749 144.404 -112.819 -121.361
7 747.337 721.47 85.5892 167.12 -111.773 -4.06406
8 736.106 771.711 81.623 215.518 -109.988 173.95
9 766.602 638.873 87.8988 93.2967 -107.405 -125.742
