#Rx
# X(m), Y(m), Z(m), Distance(m), Power (dBm) Phase (deg)
1 682.304 595.507 189.285 163.88 -130.147 -128.387
2 683.646 579.695 189.485 160.853 -127.522 -122.172
3 688.746 519.59 187.783 161.281 -128.317 89.0226
4 660.087 543.219 190.239 171.705 -127.468 -14.9444
5 754.005 673.313 187.358 184.068 -117.632 10.9166
6 755.266 658.002 187.85 175.527 -120.783 -6.82548
7 760.329 596.552 187.844 150.53 -148.008 144.937
8 772.568 447.981 186.705 184.506 -121.55 121.275
9 800.376 484.21 185.935 171.078 -125.919 -124.788
10 780.001 575.351 187.483 149.683 -131.253 -17.6965
