#Rx
# X(m), Y(m), Z(m), Distance(m), Power (dBm) Phase (deg)
1 777.951 530.93 186.83 150.633 -136.582 -11.9731
2 751.974 554.36 187.228 144.937 -148.145 151.408
3 739.656 565.469 187.277 144.995 -137.557 -41.1404
4 664.228 633.497 188.635 182.858 -138.122 130.31
5 733.406 541.466 186.414 145.625 -133.287 142.496
6 766.983 515.779 186.347 151.924 -135.163 98.9898
7 772.785 445.345 186.618 186.082 -126.935 -89.0449
8 759.089 668.902 187.429 181.738 -131.537 105.403
9 796.528 501.422 186.301 163.268 -121.903 42.0237
10 715.327 559.336 187.075 147.771 -132.679 -57.5296
