#Rx
# X(m), Y(m), Z(m), Distance(m), Power (dBm) Phase (deg)
1 679.479 628.801 138.685 135.668 -121.298 -64.4305
2 690.687 496.714 138.282 127.414 -119.876 48.9263
3 749.347 729.853 134.683 193.273 -116.842 71.505
4 750.737 712.987 136.22 179.461 -112.505 134.514
5 765.735 530.924 136.521 100.351 -130.01 102.376
6 769.706 482.722 136.525 123.976 -118.063 134.555
7 808.418 448.235 135.478 158.202 -109.437 178.206
8 768.995 624.586 137.98 117.524 -115.312 105.012
9 730.365 797.391 99.764 244.694 -115.018 134.742
10 715.618 559.788 136.929 99.1741 -122.235 32.4156
