#Rx
# X(m), Y(m), Z(m), Distance(m), Power (dBm) Phase (deg)
1 676.813 660.214 88.1147 130.031 -135.61 163.251
2 682.339 595.09 89.1535 86.3619 -131.838 -104.444
3 673.387 542.901 89.4076 88.1084 -109.656 164.982
4 751.216 707.171 86.3788 153.655 -105.144 -100.549
5 753.974 673.685 87.3471 122.463 -118.853 -146.294
6 761.034 587.993 87.8819 55.3803 -112.163 -125.669
7 762.578 569.253 87.5185 48.8363 -125.458 44.5495
8 723.598 827.662 49.764 268.695 -250 0
9 720.881 567.951 87.2368 51.8986 -110.812 -42.9998
