#Rx
# X(m), Y(m), Z(m), Distance(m), Power (dBm) Phase (deg)
1 681.173 608.832 104.571 102.162 -142.411 87.9377
2 697.874 412.012 103.438 167.114 -250 0
3 660.765 636.621 104.175 130.141 -131.414 -128.338
4 770.356 540.582 102.751 67.8055 -105.005 14.1613
5 723.715 541.697 102.101 66.1898 -107.995 -163.729
6 809.868 441.748 101.092 146.604 -112.34 86.2162
7 780.596 572.693 103.12 70.9218 -102.62 73.0242
8 744.354 734.813 100.316 184.126 -114.396 -160.874
9 740.96 749.995 99.0082 198.278 -112.488 69.5277
10 725.299 820.055 65.4781 261.885 -250 0
