#Rx
# X(m), Y(m), Z(m), Distance(m), Power (dBm) Phase (deg)
1 676.813 660.214 137.187 154.243 -125.705 -12.9069
2 682.339 595.09 138.226 120.179 -126.253 -151.667
3 673.387 542.901 138.48 121.543 -119.928 59.8285
4 751.216 707.171 135.451 174.133 -112.103 -29.0431
5 753.974 673.685 136.42 147.663 -119.15 158.008
6 761.034 587.993 136.955 99.6334 -129.19 81.3191
7 762.578 569.253 136.591 95.9643 -157.41 -68.8348
8 723.598 827.662 98.8367 274.437 -250 0
9 720.881 567.951 136.309 97.4166 -126.941 -86.0343
