#Rx
# X(m), Y(m), Z(m), Distance(m), Power (dBm) Phase (deg)
1 684.21 615.476 138.654 127.03 -134.544 -10.1116
2 661.09 543.195 140.149 130.472 -126.884 122.184
3 755.509 655.052 137.718 134.861 -117.851 -139.163
4 773.214 440.14 136.565 154.761 -116.648 143.669
5 773.424 437.59 136.617 156.812 -115.75 -60.8811
6 803.65 469.562 135.549 141.973 -114.997 -179.207
7 782.161 565.693 137.049 101.366 -122.026 11.7493
8 778.889 580.327 137.252 102.315 -118.067 19.116
9 744.191 735.542 134.247 198.069 -114.406 -3.83228
10 732.364 585.763 137.672 99.5137 -122.271 40.0208
