#Rx
# X(m), Y(m), Z(m), Distance(m), Power (dBm) Phase (deg)
1 674.495 687.543 128.215 169.479 -120.626 -91.6165
2 691.104 491.795 129.821 123.638 -121.207 -79.8974
3 796.478 514.221 127.806 109.165 -112.633 -21.0762
4 732.754 571.694 129.084 88.3454 -134.73 -158.167
5 661.063 543.195 131.912 124.447 -125.892 13.6082
6 659.259 543.239 132.013 125.751 -121.477 -171.774
7 751.673 701.622 128.141 165.588 -109.816 -107.254
8 828.132 360.047 122.661 230.54 -115.736 55.9753
9 810.789 437.628 126.815 162.103 -111.969 143.874
