#Rx
# X(m), Y(m), Z(m), Distance(m), Power (dBm) Phase (deg)
1 678.144 644.528 138.516 144.789 -126.693 76.8382
2 691.569 486.319 138.305 132.536 -116.734 75.365
3 668.24 543.024 139.808 125.694 -127.235 -1.09507
4 773.073 441.856 136.69 153.487 -113.491 165.076
5 756.774 639.696 137.886 124.746 -118.164 -171.484
6 758.925 613.591 138.187 110.411 -123.096 108.96
7 768.153 501.581 136.503 112.853 -117.838 -148.255
8 779.189 658.398 136.794 140.252 -113.42 60.0424
9 768.436 641.718 137.843 127.542 -117.089 -101.932
10 716.98 561.9 136.903 98.7587 -124.555 -35.8433
