#Rx
# X(m), Y(m), Z(m), Distance(m), Power (dBm) Phase (deg)
1 681.291 607.444 137.64 124.44 -130.288 -136.977
2 697.95 411.115 136.413 182.457 -127.846 -163.996
3 660.743 636.641 137.213 148.69 -119.792 3.2712
4 768.966 540.615 135.771 97.971 -135.127 93.4027
5 722.515 541.726 135.124 97.2639 -118.418 -169.535
6 809.608 442.912 134.148 161.712 -116.016 -80.8348
7 780.269 574.152 136.179 100.727 -120.388 64.2245
8 744.061 736.125 133.254 198.131 -119.568 -115.435
9 740.668 751.305 131.946 211.24 -116.315 81.9534
10 725.092 820.981 98.5164 267.738 -250 0
