#Rx
# X(m), Y(m), Z(m), Distance(m), Power (dBm) Phase (deg)
1 685.124 614.652 138.832 126.365 -129.23 -147.63
2 661.433 543.187 140.285 130.352 -119.359 24.7567
3 755.384 656.571 137.863 136.028 -112.173 -96.6911
4 773.183 440.522 136.717 154.552 -112.872 50.4306
5 773.419 437.649 136.776 156.86 -116.341 -0.658865
6 803.983 468.071 135.685 143.15 -122.035 24.7234
7 782.437 564.455 137.192 101.536 -126.243 -18.9502
8 779.167 579.084 137.395 102.298 -125.141 -76.9307
9 744.518 734.082 134.519 196.901 -126.69 -17.6518
10 733.072 586.862 137.877 99.9051 -127.145 -124.34
