#Rx
# X(m), Y(m), Z(m), Distance(m), Power (dBm) Phase (deg)
1 682.109 597.806 92.5971 89.5472 -127.623 -83.1258
2 687.479 534.516 91.5627 80.4921 -115.841 73.3512
3 727.814 576.15 91.1001 54.3252 -101.962 -42.2292
4 752.874 687.038 90.5632 135.991 -115.494 -11.6027
5 754.996 661.285 91.3201 112.786 -111.207 -7.5217
6 769.631 621.743 91.5036 82.2776 -105.314 -66.1606
7 751.946 700.851 90.055 148.774 -111.317 -24.8964
8 724.923 821.737 53.2662 262.804 -250 0
9 783.881 665.676 89.8656 121.834 -141.457 -104.907
