#Rx
# X(m), Y(m), Z(m), Distance(m), Power (dBm) Phase (deg)
1 679.479 628.801 139.652 136.355 -122.724 80.7666
2 690.687 496.714 139.249 128.143 -127.834 165.758
3 749.347 729.853 135.65 193.736 -110.298 166.78
4 750.737 712.987 137.187 179.968 -111.288 -50.084
5 765.735 530.924 137.488 101.257 -124.599 -8.56638
6 769.706 482.722 137.492 124.711 -114.506 144.556
7 808.418 448.235 136.445 158.772 -109.973 86.2738
8 768.995 624.586 138.947 118.311 -118.889 -76.3268
9 730.365 797.391 100.731 244.922 -119.374 -85.6465
10 715.618 559.788 137.896 100.095 -124.565 162.76
