#Rx
# X(m), Y(m), Z(m), Distance(m), Power (dBm) Phase (deg)
1 778.969 530.013 96.1276 69.7104 -115.88 -178.106
2 752.941 553.487 96.5262 54.8351 -106.984 -45.1464
3 740.604 564.614 96.5752 54.5159 -101.014 -90.4287
4 664.639 633.127 97.9518 122.635 -133.098 110.166
5 734.892 541.43 95.7463 57.4533 -102.335 -138.526
6 766.854 517.342 95.6586 71.2596 -105.242 -49.8493
7 772.73 446.016 95.9179 128.677 -110.417 -173.964
8 759.385 667.578 96.773 121.223 -109.269 -86.4318
9 796.826 500.091 95.5939 94.8094 -104.862 -60.2819
10 715.39 559.435 96.3865 61.9555 -102.945 122.471
