#Rx
# X(m), Y(m), Z(m), Distance(m), Power (dBm) Phase (deg)
1 688.372 523.991 112.038 97.2101 -120.508 -111.038
2 699.059 398.042 111.77 182.288 -146.804 -54.768
3 845.106 470.363 107.2 148.458 -115.543 -80.3476
4 781.16 528.037 110.964 83.3184 -100.95 111.751
5 749.976 722.222 109.638 175.602 -111.86 -70.0062
6 758.883 614.096 112.416 89.3158 -107.62 -102.389
7 772.287 451.393 110.718 130.908 -112.063 -128.031
8 816.119 413.787 108.57 175.092 -112.824 59.6811
9 751.546 702.642 110.735 158.21 -109.852 -68.9216
10 722.521 832.48 73.8873 275.283 -250 0
