#Rx
# X(m), Y(m), Z(m), Distance(m), Power (dBm) Phase (deg)
1 682.771 589.997 189.403 162.7 -123.702 -4.93973
2 695.759 436.933 189.08 197.859 -134.551 -10.5738
3 697.545 415.881 187.997 210.429 -130.822 -101.153
4 780.278 540.345 186.962 149.745 -132.812 106.52
5 761.696 579.957 187.746 147.425 -144.997 72.762
6 762.719 567.539 187.498 146.13 -135.399 84.4135
7 763.918 552.988 187.349 146.098 -145.207 -147.235
8 737.082 767.344 182.059 250.082 -119.678 -103.032
9 723.177 829.549 149.664 290.958 -250 0
10 715.666 559.862 186.928 147.556 -134.255 -59.4771
