#Rx
# X(m), Y(m), Z(m), Distance(m), Power (dBm) Phase (deg)
1 694.109 456.376 95.7098 127.512 -143.142 -162.517
2 696.532 427.825 95.9143 150.891 -250 0
3 725.394 578.332 94.57 58.9022 -104.067 -164.168
4 750.217 719.291 92.4925 166.998 -112.6 -137.111
5 757.236 634.097 94.875 91.4183 -109.209 -69.4959
6 768.639 495.672 93.3052 85.0262 -104.11 169.007
7 771.844 456.775 93.3496 117.926 -111.679 -82.3812
8 773.424 437.59 93.7118 135.486 -111.509 78.7158
9 803.753 469.104 92.736 118.822 -109.425 124.982
10 721.845 569.447 94.2335 57.85 -103.032 101.465
