#Rx
# X(m), Y(m), Z(m), Distance(m), Power (dBm) Phase (deg)
1 680.938 611.61 188.797 168.204 -127.223 -19.6242
2 697.715 413.88 187.855 211.669 -131.801 -36.516
3 660.873 636.524 188.462 185.474 -142.114 -78.5322
4 773.135 540.516 187.073 148.36 -137.036 -44.5151
5 726.123 541.64 186.418 146.417 -139.797 -156.487
6 810.388 439.423 185.341 197.691 -119.604 -122.858
7 781.247 569.78 187.366 149.389 -130.097 -69.4216
8 744.941 732.189 184.804 223.37 -125.178 -73.458
9 741.546 747.376 183.496 234.526 -117.247 34.0076
10 725.736 818.097 149.764 280.224 -250 0
