#Rx
# X(m), Y(m), Z(m), Distance(m), Power (dBm) Phase (deg)
1 697.45 417.007 138.64 179.004 -131.328 -22.5753
2 698.745 401.748 137.866 190.701 -143.732 -124.915
3 820.429 492.62 135.15 136.6 -130.142 -116.988
4 660.28 637.059 139.051 150.345 -124.595 105.719
5 741.526 541.272 136.984 96.4033 -125.546 -111.483
6 659.882 543.224 140.718 131.681 -130.966 31.0842
7 757.193 634.616 138.399 122.004 -117.96 130.56
8 773.342 438.585 137.221 156.387 -114.835 -71.2647
9 807.548 452.126 136.042 155.469 -114.757 168.263
10 722.56 832.309 100.128 279.32 -250 0
