#Rx
# X(m), Y(m), Z(m), Distance(m), Power (dBm) Phase (deg)
1 678.144 644.528 107.028 126.136 -126.767 -80.7964
2 691.569 486.319 106.818 111.917 -121.038 29.1818
3 668.24 543.024 108.32 103.266 -123.941 -32.6739
4 773.073 441.856 105.202 136.453 -110.493 -141.979
5 756.774 639.696 106.398 102.701 -110.553 -28.162
6 758.925 613.591 106.699 84.6024 -106.934 105.407
7 768.153 501.581 105.016 88.3672 -108.452 -135.719
8 779.189 658.398 105.306 121.348 -111.764 -94.8913
9 768.436 641.718 106.355 106.092 -109.534 -17.4113
10 716.98 561.9 105.415 69.2905 -107.308 -41.2682
