#Rx
# X(m), Y(m), Z(m), Distance(m), Power (dBm) Phase (deg)
1 782.095 527.193 134.005 103.672 -136.271 -88.1707
2 802.049 539.824 133.397 108.657 -112.857 176.278
3 762.011 576.128 134.879 95.11 -126.48 -97.2134
4 763.891 553.307 134.497 93.9362 -141.26 -166.534
5 768.879 492.764 133.652 115.535 -116.596 152.201
6 773.113 441.367 133.978 152.226 -113.744 -94.3819
7 811.768 433.248 132.424 168.741 -114.31 -164.799
8 808.554 447.624 132.647 157.046 -126.204 96.2966
9 726.039 575.953 134.805 95.7539 -129.715 -34.3047
10 718.18 563.761 134.202 95.8804 -129.312 67.7115
