#Rx
# X(m), Y(m), Z(m), Distance(m), Power (dBm) Phase (deg)
1 698.344 406.47 100.47 170.881 -250 0
2 724.442 541.68 99.3696 63.4969 -103.792 -90.9469
3 761.008 588.303 100.819 66.5177 -110.316 -5.92714
4 763.37 559.637 100.337 60.3674 -106.195 75.2439
5 800.154 485.203 98.8834 108.183 -112.424 156.229
6 791.12 525.612 99.5152 80.4142 -108.394 -87.8793
7 784.453 555.439 100.14 69.4193 -105.888 43.4298
8 724.091 825.458 62.7371 267.126 -250 0
9 722.607 832.096 62.6971 273.844 -250 0
10 715.231 559.188 100.009 65.2074 -102.976 117.746
