#Rx
# X(m), Y(m), Z(m), Distance(m), Power (dBm) Phase (deg)
1 674.262 690.279 130.101 172.594 -124.179 -166.75
2 690.86 494.671 131.823 123.623 -121.387 117.331
3 798.59 512.316 129.707 112.43 -116.361 37.4928
4 734.588 570.04 131.103 89.8738 -123.669 -9.82446
5 661.757 543.179 133.911 125.425 -131.22 -16.1963
6 659.463 543.234 134.06 127.077 -119.731 -8.91419
7 751.452 704.304 130.11 168.893 -112.5 94.9291
8 811.391 434.933 128.82 165.423 -117.349 -120.718
