#Rx
# X(m), Y(m), Z(m), Distance(m), Power (dBm) Phase (deg)
1 673.63 697.727 185.916 211.584 -134.212 -170.351
2 687.799 530.749 187.917 159.318 -124.025 50.3955
3 696.677 426.116 188.719 204.281 -130.532 -46.0977
4 699.107 397.481 187.407 222.716 -133.692 144.824
5 659.2 543.24 190.411 172.296 -130.344 -170.789
6 752.633 689.971 187.016 194.459 -125.051 143.513
7 816.917 410.213 184.176 218.016 -118.043 -160.658
8 802.983 472.547 185.754 177.229 -119.655 73.363
9 775.893 593.73 187.598 151.914 -139.83 79.2726
10 756.534 680.328 187.026 188.337 -116.461 156.251
