#Rx
# X(m), Y(m), Z(m), Distance(m), Power (dBm) Phase (deg)
1 676.705 661.488 138.04 155.644 -125.131 25.5091
2 682.247 596.181 139.13 121.27 -120.286 99.779
3 674.4 542.877 139.337 121.625 -117.337 -90.0016
4 751.101 708.562 136.339 175.778 -113.476 -169.182
5 753.86 675.072 137.307 149.289 -120.692 -41.9156
6 760.912 589.47 137.899 100.933 -130.969 13.9367
7 762.459 570.698 137.536 97.0188 -128.643 85.0781
8 723.736 827.048 99.764 274.02 -250 0
9 721.294 568.592 137.263 98.2844 -124.825 25.7186
