#Rx
# X(m), Y(m), Z(m), Distance(m), Power (dBm) Phase (deg)
1 682.67 591.196 111.827 98.9283 -134.865 -99.8947
2 684.012 575.38 112.028 94.3924 -118.998 -164.852
3 689.091 515.525 110.296 99.045 -113.35 -136.123
4 659.823 543.225 112.707 112.399 -119.833 73.0017
5 754.281 669.967 109.904 129.234 -120.356 15.118
6 755.545 654.622 110.331 116.801 -110.581 84.1426
7 760.622 592.994 110.251 76.7422 -104.007 -0.624504
8 772.747 445.806 109.198 134.912 -113.81 93.5512
9 799.559 487.863 108.441 111.434 -111.25 -163.282
10 778.827 580.603 110.005 77.8195 -106.326 127.969
