#Rx
# X(m), Y(m), Z(m), Distance(m), Power (dBm) Phase (deg)
1 781.182 528.016 136.74 105.535 -133.506 139.356
2 800.445 539.863 136.23 110.23 -122.38 -133.92
3 762.133 574.646 137.583 97.5246 -131.565 65.6591
4 764.006 551.913 137.175 96.6881 -125.93 -84.9309
5 768.999 491.312 136.375 118.554 -118.509 -26.131
6 773.149 440.933 136.709 154.224 -119.609 -18.6323
7 811.492 434.484 135.165 169.192 -112.629 78.1641
8 808.277 448.863 135.388 157.65 -109.4 -63.0462
9 725.455 575.046 137.49 98.3211 -123.56 -108.844
10 717.911 563.344 136.907 98.5309 -120.771 -78.5734
