#Rx
# X(m), Y(m), Z(m), Distance(m), Power (dBm) Phase (deg)
1 694.109 456.376 188.775 186.601 -136.24 -5.77197
2 696.532 427.825 188.979 203.388 -132.78 -84.6671
3 725.394 578.332 187.635 147.709 -142.963 90.7814
4 750.217 719.291 185.557 214.126 -117.764 43.6078
5 757.236 634.097 187.94 163.593 -121.059 91.095
6 768.639 495.672 186.37 159.193 -122.499 28.1891
7 771.844 456.775 186.415 178.964 -124.416 -71.9364
8 773.424 437.59 186.777 191.168 -126.186 135.565
9 803.753 469.104 185.801 179.237 -121.893 75.8735
10 721.845 569.447 187.299 147.08 -132.078 37.9393
