#Rx
# X(m), Y(m), Z(m), Distance(m), Power (dBm) Phase (deg)
1 699.062 398.004 143.425 196.537 -130.483 94.6362
2 733.824 570.729 143.385 102.158 -132.219 84.6192
3 708.604 593.475 144.663 113.805 -122.966 -12.5906
4 819.001 539.419 140.919 124.235 -118.339 -133.889
5 748.621 738.662 140.112 203.594 -113.501 -85.3665
6 750.419 716.847 141.779 185.666 -113.341 49.0137
7 814.873 419.358 140.532 184.742 -115.326 31.0004
8 751.489 702.896 142.625 174.555 -110.429 -169.303
9 738.105 762.767 138.33 224.401 -111.436 117.297
10 786.359 669.52 142.295 153.551 -111.853 -128.575
