#Rx
# X(m), Y(m), Z(m), Distance(m), Power (dBm) Phase (deg)
1 689.02 516.359 86.4549 84.1501 -113.993 14.1409
2 788.482 521.433 85.166 71.488 -116.037 117.386
3 669.71 628.554 87.0689 111.821 -144.652 -112.452
4 740.527 541.295 85.0277 46.7591 -96.8209 -113.292
5 763.018 563.911 85.9756 46.8293 -102.398 -120.012
6 765.479 534.03 85.1383 53.5717 -119.542 -8.01147
7 824.825 374.839 80.8379 204.856 -133.541 -178.808
8 786.321 547.082 85.4714 60.3089 -108.694 -92.9076
9 773.127 606.103 86.2905 69.1153 -105.187 -66.3551
10 785.978 668.929 84.6919 123.458 -125.104 -98.7746
