#Rx
# X(m), Y(m), Z(m), Distance(m), Power (dBm) Phase (deg)
1 685.124 614.652 99.6461 99.7786 -124.375 -83.8305
2 661.433 543.187 101.099 104.237 -116.655 -10.9569
3 755.384 656.571 98.6777 112.104 -106.419 158.385
4 773.183 440.522 97.5313 134.313 -111.365 67.8342
5 773.419 437.649 97.59 136.945 -111.188 27.0261
6 803.983 468.071 96.4994 121.352 -111.755 0.252105
7 782.437 564.455 98.006 66.5269 -104.803 39.3117
8 779.167 579.084 98.209 67.5657 -103.33 50.0509
9 744.518 734.082 95.333 181.922 -111.821 -84.6353
10 733.072 586.862 98.6916 63.5889 -123.646 -8.30408
