#Rx
# X(m), Y(m), Z(m), Distance(m), Power (dBm) Phase (deg)
1 689.02 516.359 109.784 98.3628 -114.576 10.5451
2 788.482 521.433 108.495 87.4322 -106.362 -66.172
3 669.71 628.554 110.398 122.991 -138.057 -153.585
4 740.527 541.295 108.357 68.6573 -99.0655 -152.333
5 763.018 563.911 109.305 69.0262 -103.69 -50.6012
6 765.479 534.03 108.467 73.5017 -112.144 -107.164
7 824.825 374.839 104.167 210.471 -131.452 97.4979
8 786.321 547.082 108.8 78.6465 -104.048 -111.068
9 773.127 606.103 109.619 85.8094 -105.179 -101.901
10 785.978 668.929 108.021 133.243 -117.064 110.035
