#Rx
# X(m), Y(m), Z(m), Distance(m), Power (dBm) Phase (deg)
1 693.833 459.637 109.137 131.269 -129.773 -7.18269
2 696.325 430.262 109.564 154.253 -250 0
3 727.321 576.594 108.018 70.0989 -109.619 -20.9682
4 749.979 722.185 105.731 174.112 -112.68 139.91
5 757.012 636.815 108.327 101.744 -111.117 168.975
6 768.417 498.377 106.78 91.8085 -104.739 -123.972
7 771.672 458.857 106.825 122.571 -110.731 -18.1812
8 773.412 437.737 107.187 141 -112.534 80.5378
9 804.332 466.513 106.174 127.255 -107.216 27.4516
10 722.762 570.869 107.77 70.1089 -103.971 -23.6658
