#Rx
# X(m), Y(m), Z(m), Distance(m), Power (dBm) Phase (deg)
1 697.45 417.007 188.176 209.806 -127.582 136.031
2 698.745 401.748 187.402 219.696 -130.713 -145.913
3 820.429 492.62 184.686 174.04 -118.814 -152.604
4 660.28 637.059 188.587 186.066 -135.866 106.046
5 741.526 541.272 186.52 145.278 -135.425 46.2204
6 659.882 543.224 190.253 171.819 -129.21 45.0911
7 757.193 634.616 187.935 163.821 -130.354 173.51
8 773.342 438.585 186.756 190.506 -118.553 31.5019
9 807.548 452.126 185.578 189.445 -124.65 -179.571
10 722.56 832.309 149.664 293.565 -250 0
