#Rx
# X(m), Y(m), Z(m), Distance(m), Power (dBm) Phase (deg)
1 697.01 422.196 88.5421 153.323 -250 0
2 698.544 404.117 87.3993 169.013 -250 0
3 824.462 488.983 84.4067 113.815 -115.712 -136.511
4 660.499 636.861 88.5984 123.859 -137.311 -29.9053
5 747.001 541.141 86.5915 47.9444 -110.125 174.852
6 660.409 543.211 90.2165 99.4094 -128.332 -34.9599
7 756.802 639.363 87.8892 92.0497 -108.399 122.865
8 773.245 439.762 86.7324 130.973 -107.515 -83.5174
9 808.729 446.84 85.4963 136.333 -112.143 -159.792
10 722.699 831.685 49.664 272.776 -250 0
