#Rx
# X(m), Y(m), Z(m), Distance(m), Power (dBm) Phase (deg)
1 781.182 528.016 131.372 100.771 -119.236 76.3258
2 800.445 539.863 130.861 105.704 -116.018 -92.1571
3 762.133 574.646 132.214 92.2997 -134.306 69.1102
4 764.006 551.913 131.807 91.4393 -126.632 -162.792
5 768.999 491.312 131.007 114.352 -116.43 148.634
6 773.149 440.933 131.34 151.005 -113.359 129.572
7 811.492 434.484 129.797 166.313 -114.926 -156.882
8 808.277 448.863 130.019 154.549 -122.938 -153.204
9 725.455 575.046 132.121 93.1462 -136.088 -76.1941
10 717.911 563.344 131.538 93.4012 -123.89 -119.846
