#Rx
# X(m), Y(m), Z(m), Distance(m), Power (dBm) Phase (deg)
1 685.979 552.199 188.736 158.245 -139.238 -121.971
2 746.079 559.676 187.178 144.655 -140.115 -119.086
3 695.402 605.382 189.072 161.543 -133.429 152.02
4 664.299 633.434 188.495 182.689 -130.927 -98.7299
5 815.136 418.182 184.557 212.286 -122.62 -169.095
6 775.445 595.733 187.766 152.444 -139.33 175.863
7 772.002 611.137 187.839 156.23 -127.12 134.202
8 754.74 688.353 186.941 193.41 -119.192 -93.7829
9 729.42 801.621 149.764 264.87 -250 0
