#Rx
# X(m), Y(m), Z(m), Distance(m), Power (dBm) Phase (deg)
1 680.511 616.635 104.931 106.728 -134.195 55.4297
2 695.163 443.958 105.311 141.394 -148.112 -33.34
3 802.132 539.822 102.354 84.4849 -127.01 -68.0826
4 764.231 549.181 103.332 64.3979 -107.33 106.113
5 748.891 735.388 100.606 184.778 -117.898 -73.4642
6 755.825 651.222 104.157 110.529 -117.09 -129.183
7 826.68 366.543 97.8917 216.796 -122.947 157.938
8 789.627 532.294 103.087 79.6171 -102.663 164.522
9 787.576 671.408 102.266 133.077 -128.163 41.0221
10 746.12 607.102 104.396 77.7611 -105.982 -50.5476
