#Rx
# X(m), Y(m), Z(m), Distance(m), Power (dBm) Phase (deg)
1 687.89 529.678 100.223 87.3241 -114.363 -80.0373
2 748.641 738.42 96.3209 186.373 -114.796 -81.4196
3 749.986 722.096 97.5329 171.222 -110.55 -32.181
4 824.698 375.408 94.4277 207.272 -131.605 -43.5425
5 815.946 414.559 96.6315 170.215 -110.811 179.048
6 753.613 693.395 99.0724 145.086 -106.362 128.935
7 748.129 717.929 98.0694 167.426 -109.47 -86.8334
8 736.852 768.372 94.0876 214.852 -111.044 -23.306
9 768.409 641.677 100.051 102.385 -109.459 14.0631
