#Rx
# X(m), Y(m), Z(m), Distance(m), Power (dBm) Phase (deg)
1 686.039 613.826 142.445 128.362 -130.129 -146.002
2 661.8 543.178 143.854 132.818 -120.214 -32.3341
3 755.259 658.089 141.444 139.615 -112.382 -129.148
4 773.149 440.93 140.304 156.447 -114.821 -78.6691
5 773.412 437.736 140.369 158.977 -115.194 118.373
6 804.317 466.578 139.257 146.58 -116.956 99.6458
7 782.714 563.216 140.769 104.931 -128.373 168.511
8 779.446 577.837 140.972 105.494 -130.282 18.9282
9 744.844 732.624 138.226 197.381 -118.863 -70.2628
10 733.793 587.981 141.518 103.595 -129.949 -89.2011
