#Rx
# X(m), Y(m), Z(m), Distance(m), Power (dBm) Phase (deg)
1 682.499 593.209 189.194 163.241 -126.784 -106.783
2 687.767 531.121 187.931 159.274 -125.173 -80.2757
3 724.553 579.091 187.648 147.938 -128.302 127.011
4 753.126 683.977 187.149 190.625 -125.502 89.5005
5 755.248 658.222 187.847 175.648 -133.101 134.472
6 768.701 625.902 187.97 161.285 -125.746 62.6487
7 751.002 705.077 186.455 204.423 -117.815 55.392
8 724.372 824.2 149.764 285.955 -250 0
9 781.301 661.675 186.6 179.839 -117.681 -83.0707
