#Rx
# X(m), Y(m), Z(m), Distance(m), Power (dBm) Phase (deg)
1 681.732 602.247 97.5364 94.5599 -128.844 -43.4492
2 684.315 571.803 98.0228 83.8123 -120.283 55.0422
3 686.18 549.83 97.323 81.7611 -128.048 -129.359
4 825.745 487.825 92.7151 118.691 -117.826 -119.896
5 799.73 511.288 94.6568 89.318 -114.646 174.417
6 788.738 521.202 95.2858 78.2025 -105.362 -133.353
7 737.354 567.545 95.949 54.644 -101.307 33.3554
8 663.494 634.16 97.1648 123.663 -132.381 131.348
9 796.764 500.367 94.8222 94.1714 -113.571 -157.86
10 722.404 833.003 58.3412 274.477 -250 0
