#Rx
# X(m), Y(m), Z(m), Distance(m), Power (dBm) Phase (deg)
1 682.369 594.741 92.8457 88.2507 -124.796 -3.63719
2 687.671 532.253 91.6587 81.1568 -110.588 142.599
3 725.639 578.111 91.316 55.8863 -104.251 117.507
4 753.042 684.999 90.8046 134.184 -111.322 -21.7561
5 755.164 659.242 91.5223 111.058 -103.447 -53.3887
6 769.01 624.518 91.6648 84.3023 -110.608 131.141
7 751.317 703.669 90.1726 151.457 -120.571 -134.995
8 724.548 823.415 53.4487 264.513 -250 0
9 782.16 663.007 90.2059 119.129 -132.534 125.939
