#Rx
# X(m), Y(m), Z(m), Distance(m), Power (dBm) Phase (deg)
1 682.109 597.806 139.095 121.809 -134.268 0.628692
2 687.479 534.516 138.061 114.898 -118.37 -135.229
3 727.814 576.15 137.598 98.1361 -124.205 104.525
4 752.874 687.038 137.061 158.503 -112.096 96.4753
5 754.996 661.285 137.818 139.358 -112.902 15.8513
6 769.631 621.743 138.001 116.132 -121.168 28.4029
7 751.946 700.851 136.553 169.458 -109.794 -0.354243
8 724.923 821.737 99.764 268.751 -250 0
9 783.881 665.676 136.363 146.315 -116.886 80.3768
