#Rx
# X(m), Y(m), Z(m), Distance(m), Power (dBm) Phase (deg)
1 699.178 396.643 108.108 182.152 -145.956 -106.878
2 717.379 585.561 108.381 76.2216 -105.62 69.1762
3 669.066 629.135 109.242 123.085 -139.983 -160.368
4 837.293 538.982 104.229 112.177 -121.843 146.506
5 721.806 541.743 106.862 71.1205 -103.051 -178.971
6 759.131 611.086 108.617 84.5609 -104.482 -88.1457
7 763.807 554.325 107.951 68.0444 -102.917 107.824
8 770.063 478.391 107.13 106.832 -109.918 -63.564
9 795.691 505.165 106.959 98.123 -105.979 -172.62
10 782.48 564.265 107.889 74.9775 -106.647 114.309
