#Rx
# X(m), Y(m), Z(m), Distance(m), Power (dBm) Phase (deg)
1 679.866 624.237 188.595 172.733 -134.262 -0.514317
2 685.887 553.276 188.917 158.398 -128.082 80.0852
3 824.69 488.777 184.391 177.175 -124.633 -32.7082
4 749.202 541.088 186.62 145.368 -131.31 109.28
5 667.524 543.041 189.818 167.755 -124.395 -43.8711
6 757.144 635.208 187.929 164.083 -134.193 -13.9115
7 759.766 603.378 187.925 152.358 -131.357 -149.111
8 768.93 492.149 186.374 160.694 -126.401 -120.105
9 724.823 822.186 149.664 284.023 -250 0
10 799.242 689.504 184.444 199.368 -120.317 -15.3261
