#Rx
# X(m), Y(m), Z(m), Distance(m), Power (dBm) Phase (deg)
1 778.435 530.494 83.8927 60.2829 -105.554 83.4721
2 795.633 539.978 83.6746 67.5107 -119.641 20.6902
3 762.501 570.187 84.6397 46.3661 -97.9705 102.167
4 764.35 547.734 84.1551 47.121 -101.167 42.8879
5 769.358 486.953 83.4903 86.9464 -104.718 0.931274
6 773.244 439.776 83.8422 130.012 -109.471 34.4434
7 810.663 438.193 82.3325 143.537 -136.538 106.356
8 807.447 452.577 82.5552 130.07 -113.696 -65.6089
9 723.701 572.326 84.4874 49.0931 -100.506 164.522
10 717.191 562.228 84.0091 50.5566 -108.15 32.3632
