#Rx
# X(m), Y(m), Z(m), Distance(m), Power (dBm) Phase (deg)
1 685.124 614.652 89.2 94.1886 -137.494 164.586
2 661.433 543.187 90.6531 98.7458 -116.901 -42.0283
3 755.384 656.571 88.2317 107.253 -107.661 -127.651
4 773.183 440.522 87.0852 130.383 -111.929 -52.7184
5 773.419 437.649 87.1439 133.089 -114.915 35.9138
6 803.983 468.071 86.0533 117.08 -110.185 38.351
7 782.437 564.455 87.56 58.1016 -102.512 -34.0421
8 779.167 579.084 87.763 59.2525 -104.34 -172.081
9 744.518 734.082 84.887 179.169 -114.15 -99.6204
10 733.072 586.862 88.2455 54.5821 -116.625 150.477
