#Rx
# X(m), Y(m), Z(m), Distance(m), Power (dBm) Phase (deg)
1 699.157 396.892 187.408 223.136 -125.254 -41.7982
2 749.904 556.227 187.12 144.698 -141.467 -60.6068
3 760.558 540.816 186.769 146.242 -138.233 -83.1614
4 759.163 610.703 188.153 154.764 -137.753 -121.682
5 750.201 708.66 186.473 206.976 -122.036 -126.596
6 811.273 435.462 185.32 200.403 -123.446 -83.0983
7 780.738 572.058 187.397 149.467 -132.45 96.1677
8 719.733 566.171 187.023 146.997 -133.815 -86.583
9 717.073 562.045 187.001 147.359 -150.076 -138
10 715.617 559.787 186.929 147.567 -133.121 121.293
