#Rx
# X(m), Y(m), Z(m), Distance(m), Power (dBm) Phase (deg)
1 680.511 616.635 138.689 129.399 -128.62 170.54
2 695.163 443.958 139.07 159.283 -122.79 104.213
3 802.132 539.822 136.113 110.982 -118.86 -0.495759
4 764.231 549.181 137.09 96.9138 -128.078 26.5472
5 748.891 735.388 134.364 198 -112.878 -27.4482
6 755.825 651.222 137.915 132.353 -147.429 -132.028
7 826.68 366.543 131.65 227.768 -115.01 16.7492
8 789.627 532.294 136.845 107.553 -123.973 -121.077
9 787.576 671.408 136.024 151.27 -114.849 81.62
10 746.12 607.102 138.154 106.601 -126.429 -62.8156
