#Rx
# X(m), Y(m), Z(m), Distance(m), Power (dBm) Phase (deg)
1 697.45 417.007 138.176 178.755 -141.144 -48.7003
2 698.745 401.748 137.402 190.47 -131.63 15.0313
3 820.429 492.62 134.686 136.285 -111.627 114.223
4 660.28 637.059 138.587 150.047 -120.177 -176.585
5 741.526 541.272 136.52 95.9484 -125.209 -118.962
6 659.882 543.224 140.253 131.335 -122.312 -95.6566
7 757.193 634.616 137.935 121.64 -121.382 143.864
8 773.342 438.585 136.756 156.106 -110.876 13.0528
9 807.548 452.126 135.578 155.19 -112.335 116.736
10 722.56 832.309 99.664 279.225 -250 0
