#Rx
# X(m), Y(m), Z(m), Distance(m), Power (dBm) Phase (deg)
1 682.239 596.275 139.128 121.301 -139.461 142.69
2 687.575 533.387 138.017 115.069 -131.455 -69.4774
3 726.725 577.131 137.615 98.5257 -121.858 -41.4376
4 752.958 686.018 137.09 157.708 -118.793 -174.345
5 755.08 660.266 137.828 138.631 -120.627 165.632
6 769.321 623.128 137.991 116.803 -116.467 -167.226
7 751.632 702.258 136.52 170.6 -109.589 99.5312
8 724.732 822.593 99.764 269.599 -250 0
9 783.021 664.343 136.442 145.185 -114.548 161.452
