#Rx
# X(m), Y(m), Z(m), Distance(m), Power (dBm) Phase (deg)
1 689.933 505.597 188.003 165.129 -123.513 -109.685
2 695.287 442.494 189.133 194.611 -132.527 -30.1624
3 749.783 724.556 185.261 217.869 -119.098 30.3918
4 777.849 584.979 187.576 150.594 -132.469 -148.684
5 810.924 437.023 185.304 199.311 -119.631 136.998
6 791.214 677.051 185.596 190.302 -120.607 -28.997
7 783.141 664.529 186.531 181.78 -123.65 29.6055
8 769.368 643.165 187.674 168.912 -125.279 115.126
9 717.432 562.602 186.894 147.193 -132.788 167.007
10 715.231 559.188 187.076 147.793 -137.412 144.247
