#Rx
# X(m), Y(m), Z(m), Distance(m), Power (dBm) Phase (deg)
1 688.265 525.253 98.9625 87.8979 -116.38 104.657
2 699.029 398.402 98.702 177.416 -159.107 -132.951
3 782.161 527.133 97.8815 73.8402 -109.252 -20.4214
4 749.854 723.695 96.4487 172.391 -120.251 -71.6444
5 758.785 615.285 99.3632 80.3158 -107.941 155.797
6 772.215 452.27 97.633 123.814 -112.466 11.0174
7 816.414 412.465 95.4396 171.828 -113.906 -167.64
8 751.863 701.224 97.7002 151.733 -116.754 133.412
9 722.528 832.452 60.82 274.072 -250 0
