#Rx
# X(m), Y(m), Z(m), Distance(m), Power (dBm) Phase (deg)
1 680.82 612.997 142.202 130.357 -127.73 -178.372
2 697.633 414.856 141.359 182.139 -131.047 65.2525
3 660.959 636.446 141.897 151.497 -127.328 118.055
4 774.523 540.483 140.526 103.918 -124.724 80.4217
5 727.328 541.611 139.869 100.811 -137.246 30.5943
6 810.647 438.264 138.758 168.107 -112.634 130.641
7 781.572 568.324 140.78 104.828 -130.871 -116.65
8 745.235 730.876 138.34 195.908 -117.679 -171.658
9 741.839 746.064 137.031 208.732 -128.668 84.6837
10 725.967 817.067 103.198 264.889 -250 0
