#Rx
# X(m), Y(m), Z(m), Distance(m), Power (dBm) Phase (deg)
1 673.752 696.298 86.0001 160.272 -132.028 150.76
2 687.918 529.344 87.8629 79.8056 -114.452 -167.153
3 696.784 424.859 88.6301 151.033 -250 0
4 699.126 397.257 87.4074 175.206 -145.206 -21.0222
5 659.17 543.241 90.4114 100.566 -121.445 -46.0139
6 752.742 688.647 87.0545 136.303 -109.988 -134.313
7 816.629 411.504 84.2376 169.646 -128.219 112.515
8 802.697 473.824 85.7741 111.855 -110.277 148.478
9 775.54 595.31 87.6198 64.4445 -105.858 -33.6213
10 756.194 681.852 86.9908 130.112 -107.512 1.06576
