#Rx
# X(m), Y(m), Z(m), Distance(m), Power (dBm) Phase (deg)
1 679.451 629.127 136.237 134.125 -123.646 -78.267
2 685.577 556.931 136.752 111.979 -128.465 -2.45282
3 827.583 486.167 131.885 141.749 -118.817 172.005
4 753.105 540.995 134.366 94.0571 -122.595 147.163
5 669.978 542.982 137.341 122.717 -123.819 -50.0371
6 756.81 639.268 135.585 122.722 -118.184 -133.851
7 759.406 607.755 135.672 105.531 -121.465 107.371
8 768.582 496.366 134.064 113.749 -116.562 20.5291
9 725.346 819.843 97.3588 266.368 -250 0
10 801.613 693.182 131.757 169.685 -114.003 -121.273
