#Rx
# X(m), Y(m), Z(m), Distance(m), Power (dBm) Phase (deg)
1 677.137 656.396 110.032 136.351 -128.279 54.9826
2 682.617 591.814 111.008 98.5882 -123.838 169.135
3 845.644 469.878 104.724 148.053 -122.639 -67.4242
4 670.566 542.968 111.389 103.551 -122.169 -124.323
5 751.559 703.005 108.283 157.498 -110.49 98.9801
6 754.317 669.521 109.251 128.517 -108.143 174.006
7 761.399 583.559 109.613 72.7539 -109.838 149.561
8 762.935 564.912 109.251 69.0177 -103.357 -147.644
9 723.232 829.3 71.548 271.815 -250 0
10 719.728 566.163 108.947 71.6956 -108.92 109.41
