#Rx
# X(m), Y(m), Z(m), Distance(m), Power (dBm) Phase (deg)
1 677.137 656.396 188.248 187.803 -135.835 -32.765
2 682.617 591.814 189.224 162.943 -126.844 70.8782
3 845.644 469.878 182.94 194.339 -118.128 -95.8511
4 670.566 542.968 189.605 166.173 -134.519 -132.112
5 751.559 703.005 186.499 203.003 -115.161 21.4922
6 754.317 669.521 187.468 181.859 -117.312 47.6623
7 761.399 583.559 187.829 148.006 -140.067 -77.5471
8 762.935 564.912 187.467 146.012 -143.028 66.6559
9 723.232 829.3 149.764 290.76 -250 0
10 719.728 566.163 187.163 147.135 -141.02 30.9082
