#Rx
# X(m), Y(m), Z(m), Distance(m), Power (dBm) Phase (deg)
1 683.058 586.615 108.918 95.2798 -122.668 -62.8963
2 696.126 432.612 108.589 151.92 -250 0
3 697.796 412.929 107.23 167.752 -250 0
4 776.509 540.435 106.419 73.4591 -102.666 104.627
5 761.948 576.901 107.152 68.6785 -105.107 129.698
6 762.974 564.438 106.903 66.7273 -106.82 -12.6851
7 764.178 549.826 106.692 67.4654 -111.603 29.2854
8 736.152 771.504 101.181 219.708 -111.154 -70.3128
9 722.936 830.624 69.1059 272.903 -250 0
10 715.569 559.712 106.372 70.7298 -106.831 -108.956
