#Rx
# X(m), Y(m), Z(m), Distance(m), Power (dBm) Phase (deg)
1 688.286 525.003 187.838 160.225 -130.785 102.599
2 749.1 732.858 184.574 223.758 -120.505 4.90454
3 750.453 716.426 185.795 212.169 -119.067 75.7136
4 828.408 358.81 180.966 257.749 -120.256 -89.0877
5 823.454 380.974 182.641 240.171 -122.164 -19.4134
6 814.779 419.778 184.673 211.186 -118.218 -18.6155
7 752.452 698.589 186.745 200.121 -119.821 8.95674
8 747.074 722.649 185.498 216.559 -114.149 84.5946
9 735.857 772.825 181.537 254.406 -119.368 69.8838
10 765.997 637.935 187.917 166.172 -122.213 -30.547
