#Rx
# X(m), Y(m), Z(m), Distance(m), Power (dBm) Phase (deg)
1 674.495 687.543 108.168 160.279 -145.816 164.417
2 691.104 491.795 109.774 110.4 -121.843 -10.9607
3 796.478 514.221 107.76 94.3374 -108.625 107.799
4 732.754 571.694 109.037 68.8205 -103.12 -46.9637
5 661.063 543.195 111.866 110.928 -120.381 -65.9487
6 659.259 543.239 111.966 112.371 -122.53 114.446
7 751.673 701.622 108.094 156.168 -111.295 -154.061
8 828.132 360.047 102.614 224.361 -126.694 35.4105
9 810.789 437.628 106.769 152.643 -114.777 -174.673
