#Rx
# X(m), Y(m), Z(m), Distance(m), Power (dBm) Phase (deg)
1 698.164 408.596 138.968 185.777 -129.339 70.6678
2 699.179 396.627 138.893 195.372 -133.41 -37.7277
3 661.951 635.551 140.098 149.308 -126.212 40.3883
4 678.064 542.789 140.465 120.433 -122.93 29.3159
5 668.14 543.026 141.16 126.805 -125.278 -11.4771
6 758.31 621.055 139.551 115.298 -120.784 108.248
7 816.95 410.067 135.554 190.18 -115.953 176.583
8 794.89 508.748 137.8 118.721 -113.134 -101.386
9 729.097 580.696 139.108 100.213 -125.947 -1.33449
