#Rx
# X(m), Y(m), Z(m), Distance(m), Power (dBm) Phase (deg)
1 687.945 529.03 187.951 159.62 -133.617 128.245
2 698.923 399.648 187.545 221.269 -135.29 75.0964
3 785.157 524.431 186.699 153.574 -134.513 -80.9888
4 749.49 728.116 184.927 220.349 -118.08 -171.951
5 758.491 618.861 188.227 157.639 -125.28 28.9824
6 771.985 455.059 186.42 179.983 -120.005 -102.183
7 817.298 408.511 184.094 219.26 -119.113 -149.834
8 752.817 696.957 186.643 198.932 -120.683 19.4426
9 722.585 832.196 149.664 293.459 -250 0
