#Rx
# X(m), Y(m), Z(m), Distance(m), Power (dBm) Phase (deg)
1 676.705 661.488 137.108 155.073 -130.445 84.1749
2 682.247 596.181 138.198 120.528 -134.283 136.441
3 674.4 542.877 138.404 120.884 -115.213 127.003
4 751.101 708.562 135.406 175.282 -110.551 -43.9743
5 753.86 675.072 136.375 148.699 -113.067 -29.2261
6 760.912 589.47 136.967 100.052 -126.481 72.5303
7 762.459 570.698 136.603 96.1059 -134.177 -154.807
8 723.736 827.048 98.8317 273.827 -250 0
9 721.294 568.592 136.331 97.386 -132.16 -108.163
