#Rx
# X(m), Y(m), Z(m), Distance(m), Power (dBm) Phase (deg)
1 685.864 553.555 88.7881 76.1468 -125.479 149.015
2 747.118 558.739 87.1623 44.6705 -121.774 70.6455
3 696.317 604.556 89.0894 81.3758 -132.751 -33.7014
4 664.686 633.085 88.4992 118.605 -132.741 -146.426
5 815.462 416.725 84.4873 164.662 -142.419 -25.9292
6 775.738 594.424 87.7475 64.1447 -104.364 -33.5322
7 772.294 609.829 87.8213 72.2924 -106.042 -58.8112
8 755.021 687.099 86.9698 134.948 -118.861 39.8067
9 729.689 800.418 49.764 241.08 -250 0
