#Rx
# X(m), Y(m), Z(m), Distance(m), Power (dBm) Phase (deg)
1 686.832 542.147 188.352 158.384 -130.199 -58.5669
2 699.179 396.626 187.408 223.326 -134.543 71.7243
3 743.963 561.584 187.351 144.85 -137.796 -92.8745
4 668.716 629.45 188.678 179.325 -131.452 -122.796
5 751.874 699.175 186.61 200.413 -127.111 -29.0487
6 761.851 578.073 187.764 147.216 -130.783 -63.7151
7 820.542 394 183.441 230.152 -122.086 -78.3934
8 794.608 510.009 186.334 159.823 -128.819 14.4614
9 780.822 571.681 187.392 149.452 -149.975 -130.929
10 733.25 784.488 180.754 263.941 -120.335 36.699
