#Rx
# X(m), Y(m), Z(m), Distance(m), Power (dBm) Phase (deg)
1 778.435 530.494 135.832 103.097 -117.15 -148.676
2 795.633 539.978 135.614 107.378 -123.301 158.25
3 762.501 570.187 136.579 96.0337 -133.043 -87.7736
4 764.35 547.734 136.094 96.139 -129.003 149.756
5 769.358 486.953 135.43 120.47 -113.498 -167.859
6 773.244 439.776 135.782 154.574 -116.848 -32.4679
7 810.663 438.193 134.272 165.638 -113.837 -37.9994
8 807.447 452.577 134.495 154.189 -113.72 -19.6361
9 723.701 572.326 136.427 97.2984 -121.769 179.421
10 717.191 562.228 135.948 97.7912 -123.528 21.3208
