#Rx
# X(m), Y(m), Z(m), Distance(m), Power (dBm) Phase (deg)
1 689.611 509.386 112.571 103.189 -118.596 -30.0537
2 694.874 447.365 113.684 142.703 -137.351 48.1582
3 749.513 727.843 109.617 180.79 -113.628 72.3397
4 778.647 581.411 112.154 79.829 -113.697 10.7102
5 811.796 433.125 109.871 157.994 -119.181 19.0967
6 793.426 680.482 109.867 145.946 -130.746 12.7036
7 785.323 667.913 110.958 133.696 -110.66 -167.695
8 771.26 646.099 112.148 113.572 -108.882 161.589
9 718.205 563.8 111.553 74.5121 -105.922 160.46
10 715.327 559.336 111.702 75.6765 -108.625 110.033
