#Rx
# X(m), Y(m), Z(m), Distance(m), Power (dBm) Phase (deg)
1 679.313 630.758 98.3312 112.109 -130.337 127.822
2 685.474 558.151 98.9107 82.7428 -128.707 -8.7495
3 828.547 485.298 93.9308 122.625 -121.012 -33.4917
4 754.405 540.964 96.4953 57.8445 -99.9177 137.201
5 670.867 542.961 99.391 95.7556 -118.165 80.1782
6 756.698 640.621 97.684 98.2695 -113.626 6.52682
7 759.286 609.21 97.8017 75.1918 -106.864 158.552
8 768.466 497.774 96.1748 85.178 -104.865 18.1224
9 725.533 819.005 59.4709 260.365 -250 0
10 802.403 694.408 93.7418 154.5 -250 0
