#Rx
# X(m), Y(m), Z(m), Distance(m), Power (dBm) Phase (deg)
1 673.533 698.876 185.849 212.321 -138.031 4.92149
2 794.18 516.293 186.504 157.994 -125.039 56.6236
3 758.864 548.145 186.982 145.514 -139.817 -37.8335
4 724.907 578.771 187.642 147.84 -132.729 -68.7961
5 807.124 454.024 185.608 188.255 -122.5 -99.9886
6 803.635 469.628 185.709 178.86 -128.405 -118.655
7 785.048 552.777 187.13 149.959 -141.23 -168.013
8 758.4 671.983 187.318 183.465 -120.201 -157.018
9 755.38 621.466 188.102 158.301 -123.246 -90.4286
10 715.585 559.737 186.93 147.574 -129.04 54.8629
