#Rx
# X(m), Y(m), Z(m), Distance(m), Power (dBm) Phase (deg)
1 675.257 678.554 187.18 199.962 -129.607 -62.7758
2 699.208 396.293 187.509 223.63 -130.672 154.007
3 841.952 473.208 183.195 191.124 -123.094 124.217
4 672.256 626.257 188.573 176.518 -133.149 141.509
5 832.312 539.101 183.975 167.018 -134.304 176.068
6 773.32 438.858 186.751 190.324 -128.82 -174.855
7 792.724 518.441 186.605 157.066 -124.598 -80.0701
8 751.199 704.194 186.476 203.817 -119.029 92.251
9 741.503 747.566 183.481 234.671 -121.753 103.797
10 717.676 562.98 186.892 147.15 -135.478 -68.4803
