#Rx
# X(m), Y(m), Z(m), Distance(m), Power (dBm) Phase (deg)
1 693.833 459.637 88.7237 122.183 -145.869 102.02
2 696.325 430.262 89.1512 146.539 -250 0
3 727.321 576.594 87.6055 51.5428 -109.391 -5.07321
4 749.979 722.185 85.3178 167.783 -104.506 112.316
5 757.012 636.815 87.9138 89.9005 -108.492 -136.84
6 768.417 498.377 86.3671 78.8807 -109.241 -9.03895
7 771.672 458.857 86.4122 113.204 -110.387 70.6116
8 773.412 437.737 86.7738 132.883 -105.951 145.582
9 804.332 466.513 85.7609 118.372 -107.113 171.142
10 722.762 570.869 87.3572 51.6547 -116.878 -135.224
