#Rx
# X(m), Y(m), Z(m), Distance(m), Power (dBm) Phase (deg)
1 698.232 407.792 87.4258 165.727 -250 0
2 699.187 396.539 87.4082 175.856 -144.59 -56.2932
3 661.698 635.779 88.6101 122.365 -133.338 -6.89572
4 677.08 542.812 89.049 84.9117 -114.553 -173.252
5 667.48 543.042 89.7213 93.1696 -124.959 135.051
6 758.422 619.691 88.0788 76.1096 -106.976 -129.825
7 816.691 411.224 84.1242 169.889 -131.451 -142.093
8 794.556 510.243 86.3379 82.1774 -107.541 -88.6441
9 728.471 579.725 87.5827 52.2176 -122.404 -178.981
