#Rx
# X(m), Y(m), Z(m), Distance(m), Power (dBm) Phase (deg)
1 674.379 688.908 88.1982 154.38 -126.923 140.912
2 690.982 493.234 89.8618 98.6182 -121.06 -42.4845
3 797.535 513.268 87.7966 83.0028 -112.232 -17.3484
4 733.67 570.868 89.1333 49.4226 -102.009 151.032
5 661.398 543.187 91.9523 99.4155 -128.876 -1.84638
6 659.347 543.236 92.0765 101.219 -127.148 -20.0922
7 751.562 702.965 88.1655 150.177 -113.362 -20.9066
8 828.466 358.552 82.6111 221.335 -129.439 -37.7124
9 811.09 436.282 86.8579 146.657 -118.613 -86.2569
