#Rx
# X(m), Y(m), Z(m), Distance(m), Power (dBm) Phase (deg)
1 688.088 527.34 87.9263 80.5102 -112.106 124.737
2 748.87 735.641 84.3433 180.574 -107.082 -139.756
3 750.22 719.261 85.5599 165.027 -122.277 -63.144
4 824.076 378.191 82.4303 201.849 -127.215 84.0751
5 815.362 417.17 84.5486 164.248 -125.412 154.98
6 753.032 695.993 86.8048 143.194 -109.73 90.6747
7 747.601 720.288 85.6802 166.004 -114.312 -115.553
8 736.355 770.597 81.7087 214.429 -116.02 -75.6718
9 767.205 639.809 87.8803 94.2143 -108.314 -8.58276
