#Rx
# X(m), Y(m), Z(m), Distance(m), Power (dBm) Phase (deg)
1 682.676 591.126 91.2487 85.7491 -125.953 -136.44
2 695.632 438.432 90.926 140.209 -143.937 -95.1982
3 697.457 416.921 89.9397 158.355 -250 0
4 781.532 540.315 88.8137 61.5858 -103.609 150.239
5 761.612 580.976 89.628 53.8754 -105.168 -33.2171
6 762.634 568.574 89.3801 50.4552 -97.8911 -111.742
7 763.831 554.037 89.2514 50.3686 -104.865 38.5915
8 737.393 765.954 84.0358 210.272 -114.242 -58.0283
9 723.269 829.137 51.5337 270.246 -250 0
10 715.729 559.961 88.7966 55.2947 -124.119 6.86201
