#Rx
# X(m), Y(m), Z(m), Distance(m), Power (dBm) Phase (deg)
1 688.265 525.253 137.806 116.703 -121.166 -58.6819
2 699.029 398.402 137.546 193.26 -135.565 165.007
3 782.161 527.133 136.726 106.122 -117.555 5.53748
4 749.854 723.695 135.293 188.194 -115.446 -58.703
5 758.785 615.285 138.207 111.244 -120.896 -122.637
6 772.215 452.27 136.477 145.328 -112.763 -52.2219
7 816.414 412.465 134.284 187.469 -126.55 33.6959
8 751.863 701.224 136.544 169.76 -114.125 -155.838
9 722.528 832.452 99.664 279.367 -250 0
