#Rx
# X(m), Y(m), Z(m), Distance(m), Power (dBm) Phase (deg)
1 699.009 398.639 98.7243 177.212 -153.381 93.0825
2 735.645 569.087 98.6565 57.7988 -99.3027 -146.93
3 710.263 591.979 99.7995 74.7016 -122.587 -161.66
4 821.913 539.349 96.0162 95.135 -130.135 -62.2936
5 750.181 719.736 96.8391 168.77 -125.509 -176.637
6 815.509 416.512 95.6957 168.07 -112.99 -52.2069
7 752.066 700.316 97.9837 151.001 -110.251 40.5107
8 738.677 760.21 93.8266 206.808 -113.117 71.0989
9 787.689 671.584 97.4726 131.181 -128.37 -166.726
