#Rx
# X(m), Y(m), Z(m), Distance(m), Power (dBm) Phase (deg)
1 697.236 419.529 88.3539 155.597 -250 0
2 698.649 402.881 87.4008 170.125 -250 0
3 822.447 490.8 84.5463 111.35 -113.57 70.3822
4 660.346 636.999 88.5936 124.048 -140.717 -0.723772
5 744.262 541.206 86.5557 47.9068 -115.948 0.0261264
6 660.088 543.219 90.239 99.6957 -116.165 86.4618
7 756.997 636.989 87.9121 90.0466 -105.927 136.06
8 773.298 439.121 86.7455 131.577 -110.492 -38.0615
9 808.139 449.481 85.5372 133.887 -115.76 130.447
10 722.617 832.053 49.664 273.149 -250 0
