#Rx
# X(m), Y(m), Z(m), Distance(m), Power (dBm) Phase (deg)
1 680.298 619.142 137.935 130.069 -134.632 99.1835
2 694.956 446.396 138.317 157.123 -121.069 -23.8996
3 804.863 539.757 135.209 111.648 -117.703 -59.0397
4 764.05 551.386 136.445 96.0272 -134.028 -21.3037
5 748.682 737.931 133.44 199.83 -110.312 96.8618
6 755.588 654.098 137.173 133.809 -114.077 0.131267
7 827.236 364.053 130.748 229.734 -115.405 141.817
8 790.199 529.733 136.076 107.804 -116.635 92.6399
9 789.169 673.878 135.164 153.017 -118.967 -130.034
10 747.651 609.476 137.445 107.054 -128.462 91.4476
