#Rx
# X(m), Y(m), Z(m), Distance(m), Power (dBm) Phase (deg)
1 687.89 529.678 111.36 95.0507 -129.449 -36.1691
2 748.641 738.42 107.457 189.887 -124.041 47.2991
3 749.986 722.096 108.669 175.118 -110.073 -43.021
4 824.698 375.408 105.564 210.337 -122.672 -81.4769
5 815.946 414.559 107.768 174.075 -111.606 -160.316
6 753.613 693.395 110.209 149.778 -109.646 -18.0181
7 748.129 717.929 109.206 171.443 -118.418 -58.8145
8 736.852 768.372 105.224 217.793 -112.031 24.1024
9 768.409 641.677 111.187 109.032 -116.169 108.259
