#Rx
# X(m), Y(m), Z(m), Distance(m), Power (dBm) Phase (deg)
1 680.82 612.997 88.7674 95.8938 -128.088 149.986
2 697.633 414.856 87.9242 159.585 -250 0
3 660.959 636.446 88.4629 123.233 -135.022 -78.2902
4 774.523 540.483 87.0914 56.3983 -109.433 74.2512
5 727.328 541.611 86.4342 51.1364 -116.478 129.5
6 810.647 438.264 85.3235 144.329 -110.123 -2.17313
7 781.572 568.324 87.3453 57.8245 -114.103 119.309
8 745.235 730.876 84.9054 176.055 -105.962 127.313
9 741.839 746.064 83.5966 190.589 -119.429 125.806
10 725.967 817.067 49.764 257.948 -250 0
