#Rx
# X(m), Y(m), Z(m), Distance(m), Power (dBm) Phase (deg)
1 674.262 690.279 186.453 206.965 -134.886 159.024
2 690.86 494.671 188.174 168.886 -138.566 99.3605
3 798.59 512.316 186.059 160.131 -126.193 170.617
4 734.588 570.04 187.454 145.725 -138.315 78.0081
5 661.757 543.179 190.262 170.899 -127.849 -163.953
6 659.463 543.234 190.412 172.164 -134.639 -36.8444
7 751.452 704.304 186.462 203.891 -120.665 -167.404
8 811.391 434.933 185.172 200.664 -118.445 122.174
