#Rx
# X(m), Y(m), Z(m), Distance(m), Power (dBm) Phase (deg)
1 675.346 677.507 137.036 166.531 -138.265 -115.235
2 699.211 396.253 137.303 194.898 -136.89 -87.5952
3 841.008 474.059 133.055 156.871 -119.282 107.931
4 671.589 626.859 138.361 138.535 -129.366 158.25
5 831.146 539.129 133.85 126.594 -122.356 -63.2746
6 773.341 438.604 136.551 155.967 -118.786 -55.5821
7 792.418 519.809 136.421 112.19 -115.407 107.868
8 750.865 705.689 136.236 173.294 -117.812 -71.4647
9 741.202 748.916 133.172 209.594 -109.976 -105.215
10 717.432 562.601 136.689 98.438 -122.087 118.658
