#Rx
# X(m), Y(m), Z(m), Distance(m), Power (dBm) Phase (deg)
1 684.21 615.476 188.814 168.215 -123.117 -38.0269
2 661.09 543.195 190.309 171.268 -127.818 -74.9884
3 755.509 655.052 187.878 173.935 -125.909 -63.9798
4 773.214 440.14 186.725 189.476 -121.214 136.699
5 773.424 437.59 186.777 191.168 -125.984 142.467
6 803.65 469.562 185.708 178.898 -123.402 -19.8445
7 782.161 565.693 187.209 149.244 -133.695 -179.965
8 778.889 580.327 187.412 149.958 -152.983 -7.18451
9 744.191 735.542 184.406 225.719 -120.44 60.2527
10 732.364 585.763 187.832 148.203 -133.963 86.3174
