#Rx
# X(m), Y(m), Z(m), Distance(m), Power (dBm) Phase (deg)
1 676.813 660.214 111.592 140 -124.054 171.765
2 682.339 595.09 112.631 100.991 -129.641 -81.2908
3 673.387 542.901 112.885 102.546 -129.142 -130.449
4 751.216 707.171 109.856 161.927 -111.627 -79.9218
5 753.974 673.685 110.825 132.865 -108.008 11.4221
6 761.034 587.993 111.36 75.8156 -105.281 176.12
7 762.578 569.253 110.996 71.0559 -110.843 106.67
8 723.598 827.662 73.2417 270.349 -250 0
9 720.881 567.951 110.714 73.104 -109.055 87.2706
