#Rx
# X(m), Y(m), Z(m), Distance(m), Power (dBm) Phase (deg)
1 684.645 567.917 189.437 159.407 -133.761 54.3959
2 688.033 527.983 187.811 159.667 -126.521 45.5532
3 691.977 481.507 188.381 174.224 -118.756 -36.9487
4 743.924 561.62 187.351 144.852 -134.483 -43.7497
5 723.128 541.711 186.379 146.806 -134.349 -50.4684
6 674.672 542.87 189.218 164.013 -122.168 21.1065
7 763.125 562.604 187.439 145.947 -132.919 -33.8427
8 772.735 445.959 186.746 185.796 -120.019 12.2159
9 773.212 440.163 186.724 189.46 -123.994 -165.427
10 749.338 712.522 186.178 209.548 -113.963 -98.7061
