#Rx
# X(m), Y(m), Z(m), Distance(m), Power (dBm) Phase (deg)
1 673.752 696.298 133.776 179.232 -129.222 41.857
2 687.918 529.344 135.638 113.946 -129.195 -70.2514
3 696.784 424.859 136.406 171.753 -134.115 160.217
4 699.126 397.257 135.183 193.05 -135.845 -160.228
5 659.17 543.241 138.187 130.276 -122.135 -85.4728
6 752.742 688.647 134.83 158.48 -111.544 -54.6783
7 816.629 411.504 132.013 187.211 -110.124 -82.2419
8 802.697 473.824 133.55 137.574 -108.058 95.7224
9 775.54 595.31 135.395 103.656 -124.185 -171.127
10 756.194 681.852 134.766 153.169 -110.883 33.481
