#Rx
# X(m), Y(m), Z(m), Distance(m), Power (dBm) Phase (deg)
1 698.232 407.792 139.553 186.719 -132.958 1.49228
2 699.187 396.539 139.535 195.76 -134.95 61.5617
3 661.698 635.779 140.737 149.984 -120.699 -46.6715
4 677.08 542.812 141.176 121.564 -119.892 -160.169
5 667.48 543.042 141.848 127.743 -122.772 -172.987
6 758.422 619.691 140.206 115.149 -119.553 -61.3292
7 816.691 411.224 136.251 189.517 -122.458 54.2372
8 794.556 510.243 138.465 118.483 -116.622 95.9133
9 728.471 579.725 139.71 100.705 -127.114 -137.011
