#Rx
# X(m), Y(m), Z(m), Distance(m), Power (dBm) Phase (deg)
1 682.792 589.759 133.463 114.677 -128.241 -22.9493
2 684.134 573.942 133.622 110.999 -125.75 -110.836
3 689.205 514.173 131.923 115.404 -129.038 140.241
4 659.794 543.226 134.314 127.037 -118.69 137.607
5 754.373 668.851 131.541 140.865 -111.739 119.459
6 755.637 653.497 131.948 129.735 -112.783 -145.954
7 760.719 591.809 131.842 95.9492 -118.174 -86.2769
8 772.803 445.134 130.817 147.337 -115.797 -112.441
9 799.287 489.079 130.065 124.63 -121.352 -157.786
10 778.436 582.355 131.635 97.43 -117.244 49.277
