#Rx
# X(m), Y(m), Z(m), Distance(m), Power (dBm) Phase (deg)
1 688.787 519.097 187.891 161.487 -127.134 -72.1006
2 790.808 519.335 186.598 156.265 -134.085 102.432
3 670.95 627.435 188.56 177.501 -132.743 -91.2126
4 742.961 541.237 186.539 145.264 -155.128 60.8276
5 762.784 566.753 187.489 146.09 -133.665 -75.6849
6 765.258 536.712 186.701 147.311 -132.107 -24.796
7 825.437 372.103 182.11 247.184 -120.129 -5.19035
8 786.99 544.088 186.909 150.932 -136.46 54.8171
9 773.729 603.408 187.732 154.074 -129.076 22.5494
10 787.423 671.171 186.038 186.203 -118.091 -124.194
