#Rx
# X(m), Y(m), Z(m), Distance(m), Power (dBm) Phase (deg)
1 779.349 529.67 136.769 104.471 -124.256 -87.9506
2 797.238 539.939 136.453 108.86 -113.037 -21.9528
3 762.378 571.674 137.547 97.129 -135.516 100.342
4 764.236 549.126 137.088 96.9191 -127.924 -119.98
5 769.238 488.406 136.379 120.31 -122.252 -103.285
6 773.214 440.137 136.725 154.86 -115.53 -160.292
7 810.939 436.959 135.203 167.17 -110.411 11.3085
8 807.724 451.337 135.426 155.719 -121.861 -142.863
9 724.282 573.228 137.415 98.2391 -136.867 -44.3905
10 717.417 562.579 136.895 98.6383 -148.046 98.6941
