#Rx
# X(m), Y(m), Z(m), Distance(m), Power (dBm) Phase (deg)
1 676.921 658.943 138.189 153.992 -121.966 -41.2659
2 682.432 593.998 139.177 120.576 -122.986 -84.1505
3 672.411 542.924 139.476 122.909 -128.984 44.7982
4 751.33 705.784 136.419 173.487 -128.358 116.964
5 754.089 672.295 137.387 147.224 -111.059 144.29
6 761.156 586.515 137.864 100.113 -132.481 -105.885
7 762.697 567.808 137.501 96.7497 -136.69 -75.9819
8 723.469 828.241 99.764 275.204 -250 0
9 720.482 567.333 137.211 98.3397 -121.586 8.76129
