#Rx
# X(m), Y(m), Z(m), Distance(m), Power (dBm) Phase (deg)
1 683.058 586.615 189.476 162.065 -123.552 44.4465
2 696.126 432.612 189.148 200.533 -126.588 -138.466
3 697.796 412.929 187.788 212.263 -127.539 -10.6442
4 776.509 540.435 186.977 148.931 -136.762 -174.561
5 761.948 576.901 187.71 147.034 -138.126 90.1248
6 762.974 564.438 187.461 145.996 -136.871 24.9632
7 764.178 549.826 187.25 146.218 -132.137 61.0291
8 736.152 771.504 181.739 253.401 -119.57 157.92
9 722.936 830.624 149.664 291.973 -250 0
10 715.569 559.712 186.93 147.578 -134.656 -176.33
