#Rx
# X(m), Y(m), Z(m), Distance(m), Power (dBm) Phase (deg)
1 679.676 626.475 136.248 132.672 -122.222 -129.954
2 690.93 493.844 135.864 126.971 -129.364 -69.7624
3 749.55 727.385 132.424 190.033 -116.523 -103.983
4 750.941 710.499 133.96 176.167 -129.472 -121.24
5 765.909 528.812 133.992 98.6689 -119.668 35.4957
6 769.916 480.179 134.065 123.787 -120.555 143.701
7 807.861 450.725 133.054 154.801 -121.457 179.75
8 768.438 627.077 135.498 116.82 -117.687 56.6784
9 729.793 799.949 97.3012 246.655 -250 0
10 715.569 559.712 134.467 96.8489 -120.272 -74.1284
