#Rx
# X(m), Y(m), Z(m), Distance(m), Power (dBm) Phase (deg)
1 689.02 516.359 137.934 119.392 -121.11 2.88898
2 788.482 521.433 136.645 110.232 -123.171 94.5329
3 669.71 628.554 138.548 140.501 -129.984 -64.8355
4 740.527 541.295 136.507 95.9827 -123.801 -172.306
5 763.018 563.911 137.455 96.5238 -131.676 102.129
6 765.479 534.03 136.617 99.5368 -126.888 120.982
7 824.825 374.839 132.317 220.365 -117.572 51.3998
8 786.321 547.082 136.951 103.485 -115.909 40.6281
9 773.127 606.103 137.77 109.239 -120.879 -4.80328
10 785.978 668.929 136.171 149.11 -117.408 -81.6969
