#Rx
# X(m), Y(m), Z(m), Distance(m), Power (dBm) Phase (deg)
1 673.752 696.298 91.656 161.898 -135.041 50.2812
2 687.918 529.344 93.5188 83.1493 -116.06 -134.237
3 696.784 424.859 94.286 152.855 -250 0
4 699.126 397.257 93.0633 176.739 -145.277 -15.1914
5 659.17 543.241 96.0674 103.379 -115.769 -11.7947
6 752.742 688.647 92.7104 138.254 -108.517 57.623
7 816.629 411.504 89.8936 171.124 -141.299 -146.518
8 802.697 473.824 91.43 114.161 -111.437 -158.368
9 775.54 595.31 93.2758 68.5216 -103.942 -79.6481
10 756.194 681.852 92.6467 132.152 -110.208 -127.559
