#Rx
# X(m), Y(m), Z(m), Distance(m), Power (dBm) Phase (deg)
1 698.066 409.744 107.611 170.619 -250 0
2 729.903 541.549 106.415 68.4224 -102.834 -123.687
3 760.55 593.861 107.859 75.0133 -107.635 45.3921
4 762.832 566.162 107.389 67.2961 -108.613 23.0274
5 801.24 480.345 105.782 115.75 -107.028 -174.34
6 792.364 520.049 106.397 88.4619 -107.901 177.449
7 785.619 550.22 107.041 76.3404 -104.846 142.012
8 724.71 822.687 69.711 264.947 -250 0
9 722.86 830.965 69.671 273.303 -250 0
10 715.391 559.435 106.98 71.3578 -106.767 -49.2921
