#Rx
# X(m), Y(m), Z(m), Distance(m), Power (dBm) Phase (deg)
1 679.866 624.237 88.5945 103.066 -132.586 126.18
2 685.887 553.276 88.9175 76.2309 -122.823 -34.9763
3 824.69 488.777 84.391 114.095 -115.709 12.8447
4 749.202 541.088 86.6203 48.0879 -114.726 -88.3876
5 667.524 543.041 89.8183 93.1822 -115.403 163.355
6 757.144 635.208 87.9293 88.5558 -105.49 -49.6098
7 759.766 603.378 87.9253 64.2843 -107.343 20.0455
8 768.93 492.149 86.3743 83.979 -102.34 36.263
9 724.823 822.186 49.664 263.136 -250 0
10 799.242 689.504 84.4438 146.162 -250 0
