#Rx
# X(m), Y(m), Z(m), Distance(m), Power (dBm) Phase (deg)
1 698.361 406.268 104.127 172.331 -250 0
2 699.194 396.45 104.139 180.93 -147.014 -118.455
3 661.255 636.18 105.336 130.117 -129.144 24.2466
4 675.198 542.857 105.911 96.5648 -120.307 7.06732
5 666.245 543.072 106.538 103.66 -125.064 -114.252
6 758.647 616.962 104.817 85.3529 -108.31 15.2899
7 816.174 413.538 100.965 172.601 -115.876 -65.5803
8 793.886 513.241 103.115 90.2813 -105.742 133.819
9 802.499 694.557 100.501 157.033 -137.814 44.283
10 727.268 577.859 104.236 66.9197 -101.908 114.002
