#Rx
# X(m), Y(m), Z(m), Distance(m), Power (dBm) Phase (deg)
1 681.925 599.971 139.048 122.557 -127.211 88.1166
2 684.544 569.112 139.383 115.072 -121.388 66.2534
3 686.398 547.262 138.688 113.852 -124.341 -40.1756
4 824.063 489.342 134.294 139.672 -114.599 73.4667
5 797.706 513.114 136.26 116.869 -120.381 -158.755
6 786.726 523.017 136.721 109.085 -119.785 -58.7532
7 735.265 569.43 137.444 95.9897 -134.767 1.94115
8 662.807 634.779 138.621 147.471 -123.342 -173.119
9 796.138 503.167 136.328 120.595 -113.597 -165.048
10 722.385 833.089 99.804 280.03 -250 0
