#Rx
# X(m), Y(m), Z(m), Distance(m), Power (dBm) Phase (deg)
1 681.829 601.107 140.875 124.422 -131.775 -109.675
2 684.429 570.457 141.286 116.851 -142.024 43.7817
3 686.289 548.547 140.588 115.383 -134.848 -75.8446
4 824.904 488.583 136.087 141.706 -111.049 -7.98243
5 798.719 512.2 138.041 119.112 -115.946 164.149
6 787.732 522.109 138.586 111.379 -115.657 -171.868
7 736.311 568.486 139.279 97.6091 -128.503 97.3074
8 663.141 634.478 140.476 148.348 -119.807 12.1153
9 796.451 501.766 138.158 122.811 -117.793 -74.4224
10 722.392 833.06 101.655 280.385 -250 0
