#Rx
# X(m), Y(m), Z(m), Distance(m), Power (dBm) Phase (deg)
1 675.346 677.507 137.241 166.647 -132.508 -79.2594
2 699.211 396.253 137.509 194.998 -133.66 111.797
3 841.008 474.059 133.261 156.989 -123.08 -96.4324
4 671.589 626.859 138.566 138.677 -120.324 171.063
5 831.146 539.129 134.056 126.743 -118.891 68.2451
6 773.341 438.604 136.756 156.091 -112.35 30.5719
7 792.418 519.809 136.626 112.362 -118.112 -92.1675
8 750.865 705.689 136.441 173.406 -109.515 -171.629
9 741.202 748.916 133.377 209.682 -110.949 -19.4075
10 717.432 562.601 136.894 98.6345 -136.078 16.3817
