#Rx
# X(m), Y(m), Z(m), Distance(m), Power (dBm) Phase (deg)
1 698.344 406.47 109.73 174.239 -250 0
2 724.442 541.68 108.63 71.9055 -108.439 56.5437
3 761.008 588.303 110.079 74.7663 -105.633 -159.218
4 763.37 559.637 109.597 69.287 -102.966 -177.571
5 800.154 485.203 108.143 113.283 -110.922 106.231
6 791.12 525.612 108.775 87.2221 -108.31 -34.7045
7 784.453 555.439 109.4 77.2778 -107.89 -68.4055
8 724.091 825.458 71.9972 267.986 -250 0
9 722.607 832.096 71.9572 274.681 -250 0
10 715.231 559.188 109.27 73.5011 -105.481 -34.5386
