#Rx
# X(m), Y(m), Z(m), Distance(m), Power (dBm) Phase (deg)
1 697.01 422.196 106.419 159.602 -250 0
2 698.544 404.117 105.276 174.612 -250 0
3 824.462 488.983 102.283 121.536 -118.8 -38.7362
4 660.499 636.861 106.475 131.56 -128.75 -25.6548
5 747.001 541.141 104.468 64.7596 -102.836 -43.5895
6 660.409 543.211 108.093 109.119 -118.682 130.386
7 756.802 639.363 105.766 102.052 -108.245 -87.9212
8 773.245 439.762 104.609 138.037 -114.653 -157.669
9 808.729 446.84 103.373 142.978 -116.539 178.981
10 722.699 831.685 67.5406 273.828 -250 0
