#Rx
# X(m), Y(m), Z(m), Distance(m), Power (dBm) Phase (deg)
1 677.78 648.828 188.469 183.969 -140.948 113.638
2 691.25 490.076 188.246 170.652 -125.297 -17.5648
3 670.461 542.971 189.653 166.262 -121.81 -94.5563
4 772.943 443.432 186.657 187.319 -122.384 -17.2502
5 756.514 642.862 187.855 167.625 -126.664 50.751
6 758.611 617.4 188.232 157.114 -129.702 19.3603
7 767.797 505.901 186.499 155.34 -125.955 166.008
8 781.628 662.182 186.57 180.166 -125.716 70.8454
9 770.668 645.181 187.715 170.132 -121.508 0.999227
10 717.657 562.95 186.89 147.152 -137.288 -136.435
