#Rx
# X(m), Y(m), Z(m), Distance(m), Power (dBm) Phase (deg)
1 699.086 397.728 87.4068 174.779 -146.632 121.698
2 732.912 571.551 87.3798 48.1333 -116.898 111.22
3 707.772 594.225 88.7261 69.0467 -135.154 129.79
4 817.544 539.454 85.0013 85.7035 -117.036 -83.3447
5 748.743 737.184 84.2156 182.044 -114.406 45.4553
6 750.538 715.397 85.88 161.396 -106.96 50.0468
7 814.555 420.782 84.5813 160.78 -123.376 -100.367
8 751.2 704.189 86.5759 150.858 -121.436 -8.18315
9 737.82 764.044 82.213 208.029 -111.378 14.5881
10 785.693 668.487 86.3372 123.55 -128.1 169.195
