#Rx
# X(m), Y(m), Z(m), Distance(m), Power (dBm) Phase (deg)
1 689.252 513.619 187.977 162.875 -124.414 -19.5407
2 786.158 523.529 186.613 153.963 -135.846 162.31
3 668.547 629.602 188.537 179.341 -133.37 86.645
4 738.089 541.354 186.475 145.369 -135.673 -27.4713
5 763.251 561.073 187.421 145.925 -139.436 56.2284
6 765.7 531.349 186.534 148.148 -135.459 59.2266
7 824.213 377.578 182.524 242.889 -118.533 -51.1814
8 785.651 550.077 186.992 150.139 -135.259 -131.878
9 772.524 608.801 187.807 155.539 -131.045 -82.1594
10 784.531 666.685 186.304 183.137 -118.709 104.18
