#Rx
# X(m), Y(m), Z(m), Distance(m), Power (dBm) Phase (deg)
1 682.499 593.209 89.1941 85.5182 -131.99 45.9748
2 687.767 531.121 87.9308 79.2897 -106.945 118.437
3 724.553 579.091 87.6479 53.4852 -106.475 14.455
4 753.126 683.977 87.1495 131.957 -114.796 -110.618
5 755.248 658.222 87.8474 108.57 -108.709 1.57299
6 768.701 625.902 87.9695 83.209 -104.999 115.018
7 751.002 705.077 86.4554 151.665 -108.683 120.689
8 724.372 824.2 49.764 265.183 -250 0
9 781.301 661.675 86.6 116.304 -124.879 101.072
