#Rx
# X(m), Y(m), Z(m), Distance(m), Power (dBm) Phase (deg)
1 699.169 396.746 187.408 223.241 -133.966 -149.057
2 748.779 557.241 187.137 144.666 -134.925 -56.5299
3 759.162 540.85 186.751 146.087 -132.732 -97.2894
4 759.253 609.608 188.14 154.404 -130.954 -56.5292
5 749.935 709.849 186.445 207.807 -131.112 84.8213
6 810.983 436.758 185.34 199.52 -120.023 -156.731
7 780.447 573.357 187.415 149.528 -130.291 -17.5834
8 719.391 565.641 187.001 147.016 -136.358 49.9905
9 716.83 561.667 187.006 147.407 -134.706 -153.448
10 715.585 559.737 186.93 147.574 -129.153 57.1236
