#Rx
# X(m), Y(m), Z(m), Distance(m), Power (dBm) Phase (deg)
1 687.89 529.678 138.016 115.823 -122.439 31.4094
2 748.641 738.42 134.113 200.572 -109.97 -86.6206
3 749.986 722.096 135.325 186.824 -125.944 131.584
4 824.698 375.408 132.22 219.803 -114.348 -71.5388
5 815.946 414.559 134.424 185.718 -110.409 -90.5163
6 753.613 693.395 136.865 163.562 -111.379 137.31
7 748.129 717.929 135.862 183.461 -114.022 -158.122
8 736.852 768.372 131.88 226.908 -117.428 172.712
9 768.409 641.677 137.843 127.512 -118.585 -58.4366
