#Rx
# X(m), Y(m), Z(m), Distance(m), Power (dBm) Phase (deg)
1 688.052 527.77 135.358 114.083 -130.48 17.3264
2 698.961 399.205 135 191.363 -139.698 -6.17172
3 784.158 525.333 134.15 105.135 -129.385 21.5219
4 749.612 726.64 132.504 189.416 -115.908 74.0731
5 758.589 617.668 135.691 110.291 -118.722 111.947
6 772.064 454.101 133.895 142.276 -114.613 -75.7583
7 817.004 409.827 131.613 188.494 -111.279 -62.0035
8 752.499 698.381 134.065 166.046 -115.637 101.074
9 722.559 832.31 97.1191 278.716 -250 0
