#Rx
# X(m), Y(m), Z(m), Distance(m), Power (dBm) Phase (deg)
1 693.695 461.264 188.698 183.988 -123.972 15.3422
2 696.222 431.478 189.237 201.297 -132.406 -141.812
3 728.283 575.726 187.591 146.989 -135.065 112.304
4 749.86 723.629 185.198 217.13 -129.47 107.75
5 756.9 638.177 187.901 165.424 -128.51 -126.301
6 768.305 499.733 186.366 157.544 -128.122 -5.42568
7 771.583 459.941 186.411 177.116 -121.073 -22.3545
8 773.403 437.853 186.771 190.993 -120.069 -81.5407
9 804.622 465.215 185.741 181.472 -118.76 -77.2565
10 723.242 571.614 187.388 147.1 -132.7 96.0126
