#Rx
# X(m), Y(m), Z(m), Distance(m), Power (dBm) Phase (deg)
1 684.765 566.502 104.547 87.4006 -123.463 -11.5558
2 688.142 526.709 102.926 90.024 -112.488 -75.1079
3 692.07 480.413 103.561 113.878 -118.821 21.7573
4 742.918 562.527 102.53 60.1388 -103.974 15.5947
5 721.782 541.744 101.525 66.3401 -104.207 170.599
6 673.784 542.891 104.443 96.6537 -127.247 67.3541
7 763.24 561.214 102.586 62.4997 -105.858 151.016
8 772.791 445.274 101.923 131.94 -113.482 63.0041
9 773.242 439.797 101.895 136.806 -114.31 19.3225
10 749.02 713.943 101.232 164.786 -110.165 131.484
