#Rx
# X(m), Y(m), Z(m), Distance(m), Power (dBm) Phase (deg)
1 698.093 409.429 140.071 185.694 -129.144 141.06
2 699.169 396.744 139.938 195.794 -131.566 -18.9481
3 662.224 635.305 141.145 149.718 -122.53 162.647
4 679.073 542.765 141.439 120.667 -127.384 -56.6925
5 668.827 543.01 142.157 127.166 -120.992 -32.3225
6 758.197 622.423 140.582 116.88 -125.494 107.711
7 817.208 408.914 136.544 191.67 -121.315 49.7255
8 795.225 507.252 138.821 120.328 -123.66 -56.9089
9 729.736 581.688 140.193 101.362 -131.145 -27.5332
