#Rx
# X(m), Y(m), Z(m), Distance(m), Power (dBm) Phase (deg)
1 682.963 587.743 141.608 120.67 -138.402 -96.3285
2 696.006 434.023 141.282 167.698 -121.125 -121.345
3 697.715 413.884 140.012 182.168 -130.86 -28.8583
4 777.767 540.405 139.15 103.585 -123.476 -3.27812
5 761.864 577.919 139.878 100.253 -139.744 47.6176
6 762.889 565.476 139.63 98.7159 -129.083 -53.1132
7 764.091 550.88 139.44 99.011 -135.181 82.2477
8 736.462 770.117 134.002 229.365 -120.948 171.101
9 723.01 830.293 101.82 277.674 -250 0
10 715.586 559.737 139.086 101.239 -130.994 -91.5762
