#Rx
# X(m), Y(m), Z(m), Distance(m), Power (dBm) Phase (deg)
1 688.787 519.097 83.7121 81.5037 -116.94 -0.809938
2 790.808 519.335 82.4185 72.4773 -113.434 -39.2454
3 670.95 627.435 84.3811 109.233 -138.42 -144.716
4 742.961 541.237 82.3596 44.1383 -99.8246 152.933
5 762.784 566.753 83.3096 44.6184 -94.8746 108.138
6 765.258 536.712 82.5221 50.1308 -104.872 -108.412
7 825.437 372.103 77.9312 207.049 -142.44 -130.891
8 786.99 544.088 82.73 59.5813 -115.205 154.839
9 773.729 603.408 83.5532 65.8532 -101.786 -12.2001
10 787.423 671.171 81.8595 124.989 -124.41 160.997
