#Rx
# X(m), Y(m), Z(m), Distance(m), Power (dBm) Phase (deg)
1 689.504 510.652 187.924 163.61 -138.229 -75.3469
2 694.732 449.043 189.03 190.799 -126.701 175.225
3 749.423 728.937 184.899 220.957 -115.483 -108.215
4 778.913 580.222 187.51 150.045 -133.982 159.097
5 812.086 431.825 185.209 202.868 -119.353 38.3043
6 794.165 681.628 185.121 193.513 -123.243 -24.1126
7 786.052 669.043 186.264 184.813 -121.8 -108.462
8 771.89 647.076 187.463 171.056 -129.14 125.273
9 718.489 564.242 186.944 147.078 -133.296 -147.766
10 715.389 559.433 187.073 147.756 -134.829 127.181
