#Rx
# X(m), Y(m), Z(m), Distance(m), Power (dBm) Phase (deg)
1 687.89 529.678 90.7009 81.3467 -109.177 69.5716
2 748.641 738.42 86.7984 183.85 -126.852 -172.091
3 749.986 722.096 88.0104 168.404 -110.847 4.60538
4 824.698 375.408 84.9052 205.095 -128.591 -31.0778
5 815.946 414.559 87.109 167.431 -138.324 173.679
6 753.613 693.395 89.5499 141.646 -109.879 -23.9165
7 748.129 717.929 88.5469 164.512 -113.52 33.2751
8 736.852 768.372 84.5652 212.768 -118.695 24.2858
9 768.409 641.677 90.5287 97.3542 -106.963 122.918
