#Rx
# X(m), Y(m), Z(m), Distance(m), Power (dBm) Phase (deg)
1 699.191 396.488 187.508 223.49 -127.367 46.4555
2 716.258 586.572 187.891 150.739 -139.85 155.146
3 668.395 629.739 188.635 179.54 -142.199 -120.95
4 836.057 539.011 183.714 168.777 -121.959 102.926
5 720.382 541.777 186.243 147.118 -128.819 115.171
6 759.248 609.674 188 154.293 -130.754 3.20038
7 763.929 552.851 187.305 146.062 -133.591 -106.54
8 770.161 477.199 186.531 167.863 -118.908 113.809
9 795.356 506.666 186.383 161.171 -122.29 54.2736
10 782.184 565.587 187.307 149.341 -131.103 108.118
