#Rx
# X(m), Y(m), Z(m), Distance(m), Power (dBm) Phase (deg)
1 682.676 591.126 110.229 97.7899 -124.076 164.833
2 695.632 438.432 109.907 147.838 -145.568 -56.748
3 697.457 416.921 108.92 165.035 -250 0
4 781.532 540.315 107.794 76.8786 -107.408 -51.2054
5 761.612 580.976 108.609 71.0702 -106.166 -172.595
6 762.634 568.574 108.361 68.4452 -106.976 2.28087
7 763.831 554.037 108.232 68.3456 -102.965 15.0494
8 737.393 765.954 103.016 214.827 -112.727 20.8869
9 723.269 829.137 70.5145 271.542 -250 0
10 715.729 559.961 107.777 71.933 -112.804 -63.9634
