#Rx
# X(m), Y(m), Z(m), Distance(m), Power (dBm) Phase (deg)
1 681.925 599.971 189.048 164.842 -133.749 72.2672
2 684.544 569.112 189.383 159.46 -130.925 -147.961
3 686.398 547.262 188.688 158.362 -129.886 103.18
4 824.063 489.342 184.294 176.594 -126.599 41.3888
5 797.706 513.114 186.26 159.787 -126.116 90.975
6 786.726 523.017 186.721 154.335 -126.236 -76.7641
7 735.265 569.43 187.444 145.623 -134.393 31.014
8 662.807 634.779 188.621 184.004 -142.79 -135.665
9 796.138 503.167 186.328 162.553 -123.037 116.665
10 722.385 833.089 149.804 294.355 -250 0
