#Rx
# X(m), Y(m), Z(m), Distance(m), Power (dBm) Phase (deg)
1 688.372 523.991 187.814 160.396 -127.514 -15.963
2 699.059 398.042 187.546 222.409 -134.552 150.356
3 845.106 470.363 182.977 193.866 -117.925 163.19
4 781.16 528.037 186.741 151.844 -126.953 139.73
5 749.976 722.222 185.415 216.217 -120.223 -91.7832
6 758.883 614.096 188.193 155.923 -130.645 -73.328
7 772.287 451.393 186.495 182.248 -121.725 151.057
8 816.119 413.787 184.347 215.427 -119.04 -47.7685
9 751.546 702.642 186.512 202.756 -115.114 -152.277
10 722.521 832.48 149.664 293.728 -250 0
