#Rx
# X(m), Y(m), Z(m), Distance(m), Power (dBm) Phase (deg)
1 682.548 592.633 143.796 123.884 -124.47 -10.0683
2 683.89 576.82 143.997 120.156 -138.719 89.7842
3 688.976 516.878 142.275 122.726 -118.581 87.0405
4 659.882 543.224 144.703 134.679 -125.981 -50.9777
5 754.189 671.083 141.871 149.253 -111.469 -19.3953
6 755.452 655.75 142.32 138.624 -112.064 -14.5503
7 760.524 594.182 142.265 106.431 -120.536 -11.791
8 772.69 446.504 141.184 152.734 -115.195 51.1623
9 799.832 486.644 140.422 133.652 -122.472 147.599
10 779.218 578.854 141.981 106.539 -120.263 -159.58
