#Rx
# X(m), Y(m), Z(m), Distance(m), Power (dBm) Phase (deg)
1 698.232 407.792 109.473 173.007 -250 0
2 699.187 396.539 109.455 182.731 -151.813 -103.054
3 661.698 635.779 110.657 132.255 -125.613 -170.618
4 677.08 542.812 111.096 98.7297 -116.711 -31.8497
5 667.48 543.042 111.768 106.056 -120.592 15.7461
6 758.422 619.691 110.126 91.0354 -108.266 161.331
7 816.691 411.224 106.171 176.586 -110.604 -69.9467
8 794.556 510.243 108.385 95.766 -107.048 143.836
9 728.471 579.725 109.63 72.108 -111.436 -149.415
