#Rx
# X(m), Y(m), Z(m), Distance(m), Power (dBm) Phase (deg)
1 777.951 530.93 136.83 103.729 -117.138 85.9676
2 751.974 554.36 137.228 95.06 -126.547 93.6237
3 739.656 565.469 137.277 95.1225 -125.228 123.931
4 664.228 633.497 138.635 146.034 -127.262 -6.71167
5 733.406 541.466 136.414 96.5271 -131.276 78.0066
6 766.983 515.779 136.347 105.824 -123.617 -117.501
7 772.785 445.345 136.618 150.722 -115.373 -14.216
8 759.089 668.902 137.429 145.045 -113.921 -114.12
9 796.528 501.422 136.301 121.568 -127.524 -136.448
10 715.327 559.336 137.075 99.4041 -121.7 -6.31796
