#Rx
# X(m), Y(m), Z(m), Distance(m), Power (dBm) Phase (deg)
1 682.369 594.741 89.161 86.2028 -143 -42.372
2 687.671 532.253 87.974 78.9804 -116.859 125.01
3 725.639 578.111 87.6312 52.7 -116.361 138.16
4 753.042 684.999 87.1199 132.903 -114.679 57.3297
5 755.164 659.242 87.8376 109.482 -104.956 158.889
6 769.01 624.518 87.9801 82.2089 -109.717 172.917
7 751.317 703.669 86.4879 150.339 -105.117 -108.285
8 724.548 823.415 49.764 264.387 -250 0
9 782.16 663.007 86.5212 117.702 -124.418 -5.16005
