#Rx
# X(m), Y(m), Z(m), Distance(m), Power (dBm) Phase (deg)
1 679.451 629.127 88.5418 106.419 -135.643 139.428
2 685.577 556.931 89.0571 76.3264 -130.521 81.6951
3 827.583 486.167 84.1905 117.657 -115.99 148.773
4 753.105 540.995 86.6713 48.5871 -114.932 -78.3009
5 669.978 542.982 89.6464 91.0472 -117.273 -78.259
6 756.81 639.268 87.8901 91.9695 -106.539 150.32
7 759.406 607.755 87.9774 67.2776 -108.301 -70.6245
8 768.582 496.366 86.3694 80.5087 -105.311 -64.1045
9 725.346 819.843 49.664 260.76 -250 0
10 801.613 693.182 84.0622 150.186 -250 0
