#Rx
# X(m), Y(m), Z(m), Distance(m), Power (dBm) Phase (deg)
1 674.611 686.172 186.694 204.452 -140.17 5.98218
2 691.226 490.358 188.242 170.54 -122.356 92.1797
3 795.423 515.172 186.278 158.485 -132.953 -62.9015
4 731.841 572.517 187.496 146.199 -145.269 -71.3041
5 660.754 543.203 190.332 171.454 -132.481 75.5533
6 659.2 543.24 190.411 172.296 -130.373 -173.842
7 748.504 740.086 183.835 228.924 -113.643 -126.648
8 751.783 700.279 186.578 201.155 -118.373 59.0714
9 827.798 361.541 181.172 255.539 -120.66 83.125
10 810.487 438.978 185.235 197.917 -125.518 127.848
