#Rx
# X(m), Y(m), Z(m), Distance(m), Power (dBm) Phase (deg)
1 679.589 627.497 188.559 174.048 -137.353 -29.0924
2 685.681 555.711 189.011 158.478 -129.813 72.485
3 826.617 487.038 184.257 178.637 -126.501 77.6771
4 751.805 541.026 186.654 145.49 -130.145 -133.361
5 669.123 543.003 189.706 166.918 -124.474 130.227
6 756.921 637.916 187.903 165.304 -121.781 -134.744
7 759.526 606.294 187.96 153.225 -131.66 -80.2582
8 768.698 494.961 186.371 159.491 -125.158 169.029
9 725.165 820.652 149.664 282.582 -250 0
10 800.823 691.957 184.189 201.215 -120.331 59.5307
