#Rx
# X(m), Y(m), Z(m), Distance(m), Power (dBm) Phase (deg)
1 674.379 688.908 186.533 206.121 -135.238 -135.677
2 690.982 493.234 188.197 169.426 -124.215 84.3384
3 797.535 513.268 186.132 159.572 -126.053 69.0311
4 733.67 570.868 187.468 145.874 -134.769 23.1749
5 661.398 543.187 190.287 171.097 -128.088 -92.4916
6 659.347 543.236 190.411 172.223 -126.896 72.6833
7 751.562 702.965 186.5 202.976 -117.467 -174.435
8 828.466 358.552 180.946 257.959 -120.643 -76.2308
9 811.09 436.282 185.193 199.743 -119.082 -41.045
