#Rx
# X(m), Y(m), Z(m), Distance(m), Power (dBm) Phase (deg)
1 681.829 601.107 89.0238 89.2748 -123.086 112.614
2 684.429 570.457 89.4341 78.1082 -119.483 106.423
3 686.289 548.547 88.7367 76.3694 -116.794 -96.9887
4 824.904 488.583 84.2361 114.307 -115.929 55.1631
5 798.719 512.2 86.1896 83.4911 -112.107 136.508
6 787.732 522.109 86.7347 71.6372 -113.925 -63.3307
7 736.311 568.486 87.4278 46.7148 -118.838 172.737
8 663.141 634.478 88.6241 120.573 -125.859 -158.441
9 796.451 501.766 86.3067 88.6196 -111.596 82.6036
10 722.392 833.06 49.804 274.176 -250 0
