#Rx
# X(m), Y(m), Z(m), Distance(m), Power (dBm) Phase (deg)
1 686.952 613.003 188.867 166.47 -123.305 45.3343
2 662.192 543.168 190.232 170.66 -125.785 -156.042
3 755.134 659.606 187.834 176.408 -120.98 159.355
4 773.113 441.365 186.7 188.669 -122.326 -66.9914
5 773.403 437.851 186.771 190.994 -118.964 171.2
6 804.65 465.091 185.639 181.465 -124.695 34.8834
7 782.99 561.98 187.157 149.302 -130.326 56.5933
8 779.724 576.594 187.36 149.634 -136.243 -36.8279
9 745.169 731.167 184.743 222.542 -114.012 116.195
10 734.529 589.122 187.97 148.777 -135.36 -148.81
