#Rx
# X(m), Y(m), Z(m), Distance(m), Power (dBm) Phase (deg)
1 780.265 528.844 186.755 151.484 -130.662 91.7565
2 798.843 539.901 186.341 154.531 -130.41 162.398
3 762.256 573.16 187.565 146.542 -137.764 -79.9702
4 764.121 550.52 187.132 146.047 -134.526 -88.7128
5 769.118 489.858 186.377 161.704 -122.108 151.004
6 773.183 440.523 186.717 189.223 -120.368 -35.5432
7 811.216 435.719 185.184 200.127 -123.514 -80.5252
8 808.001 450.1 185.407 190.625 -118.265 120.767
9 724.87 574.139 187.452 147.142 -134.462 95.2754
10 717.658 562.951 186.89 147.152 -136.788 -98.1944
