#Rx
# X(m), Y(m), Z(m), Distance(m), Power (dBm) Phase (deg)
1 682.771 589.997 139.403 119.513 -127.865 -2.3449
2 695.759 436.933 139.08 164.295 -119.085 84.8449
3 697.545 415.881 137.997 179.536 -132.513 81.9154
4 780.278 540.345 136.962 102.371 -127.99 63.5334
5 761.696 579.957 137.746 98.5492 -129.769 -81.5803
6 762.719 567.539 137.498 96.729 -148.075 94.882
7 763.918 552.988 137.349 96.7578 -136.483 -59.9698
8 737.082 767.344 132.059 226.026 -112.658 18.6714
9 723.177 829.549 99.664 276.482 -250 0
10 715.666 559.862 136.928 99.1583 -135.977 -10.4971
