#Rx
# X(m), Y(m), Z(m), Distance(m), Power (dBm) Phase (deg)
1 682.426 594.072 89.3155 85.9771 -129.24 87.9705
2 683.768 578.256 89.5164 80.0905 -124.296 -22.0857
3 688.861 518.235 87.8046 84.0216 -109.949 3.2566
4 659.969 543.222 90.2473 99.8015 -132.966 129.68
5 754.097 672.199 87.3901 121.108 -105.917 -138.644
6 755.359 656.877 87.8604 107.369 -119.434 154.841
7 760.426 595.368 87.8298 59.2594 -112.283 3.10499
8 772.63 447.228 86.72 124.016 -107.726 -168.373
9 800.103 485.428 85.9537 101.855 -103.805 128.082
10 779.61 577.103 87.5072 58.6998 -106.273 16.2843
