#Rx
# X(m), Y(m), Z(m), Distance(m), Power (dBm) Phase (deg)
1 697.345 418.248 137.575 177.47 -136.752 138.653
2 698.698 402.3 136.713 189.68 -136.259 -41.1353
3 821.438 491.71 133.928 136.782 -117.387 -70.7576
4 660.302 637.039 137.901 149.586 -126.118 158.295
5 742.892 541.239 135.849 95.2436 -126.799 53.0236
6 659.97 543.222 139.559 130.761 -123.102 62.0985
7 757.095 635.803 137.235 121.817 -113.006 -65.3436
8 773.321 438.839 136.063 155.487 -115.206 11.0018
9 807.844 450.804 134.869 155.808 -117.922 -135.49
10 722.585 832.195 98.9755 278.972 -250 0
