#Rx
# X(m), Y(m), Z(m), Distance(m), Power (dBm) Phase (deg)
1 676.705 661.488 91.2152 132.183 -136.24 159.043
2 682.247 596.181 92.3051 88.6101 -127.333 -131.98
3 674.4 542.877 92.5119 88.9869 -126.818 54.6372
4 751.101 708.562 89.5137 155.9 -108.774 127.625
5 753.86 675.072 90.4821 124.914 -104.772 -37.9638
6 760.912 589.47 91.0746 58.72 -102.685 17.8512
7 762.459 570.698 90.7108 52.0322 -109.587 61.2484
8 723.736 827.048 52.9391 268.177 -250 0
9 721.294 568.592 90.4383 54.5897 -100.102 -17.5959
