#Rx
# X(m), Y(m), Z(m), Distance(m), Power (dBm) Phase (deg)
1 774.899 533.684 136.877 102.128 -125.677 -94.2754
2 749.069 556.98 137.272 94.8466 -125.175 -2.98204
3 736.809 568.037 137.32 95.5796 -123.064 -116.742
4 663.117 634.5 138.624 147.157 -124.529 -29.0006
5 728.938 541.572 136.355 97.1343 -128.606 116.092
6 767.369 511.089 136.353 107.948 -116.552 155.807
7 772.938 443.499 136.656 152.181 -112.491 -25.0558
8 758.202 672.87 137.338 147.913 -112.016 119.718
9 795.637 505.406 136.363 119.374 -115.476 -65.1742
10 715.231 559.188 137.076 99.4365 -128.268 165.272
