#Rx
# X(m), Y(m), Z(m), Distance(m), Power (dBm) Phase (deg)
1 698.164 408.596 137.483 185.01 -133.54 -74.4113
2 699.179 396.627 137.408 194.643 -135.635 140.008
3 661.951 635.551 138.613 148.342 -126.226 -86.5696
4 678.064 542.789 138.98 119.228 -124.049 39.8524
5 668.14 543.026 139.675 125.653 -115.55 -72.6369
6 758.31 621.055 138.066 114.051 -122.009 -107.965
7 816.95 410.067 134.069 189.458 -117.161 -86.1953
8 794.89 508.748 136.315 117.532 -111.409 -116.538
9 729.097 580.696 137.623 98.782 -137.389 37.3545
