#Rx
# X(m), Y(m), Z(m), Distance(m), Power (dBm) Phase (deg)
1 677.78 648.828 138.469 147.479 -122.323 -135.166
2 691.25 490.076 138.246 130.575 -121.429 142.585
3 670.461 542.971 139.653 124.218 -124.827 172.236
4 772.943 443.432 136.657 152.234 -114.169 113.999
5 756.514 642.862 137.855 126.747 -118.309 -123.024
6 758.611 617.4 138.232 112.312 -120.869 -84.1311
7 767.797 505.901 136.499 110.603 -117.689 -35.2273
8 781.628 662.182 136.57 143.371 -115.759 -114.056
9 770.668 645.181 137.715 130.099 -116.681 -69.4741
10 717.657 562.95 136.89 98.5756 -125.467 -73.9318
