#Rx
# X(m), Y(m), Z(m), Distance(m), Power (dBm) Phase (deg)
1 677.402 653.28 104.267 131.222 -126.994 163.489
2 699.029 398.399 103.531 179.006 -148.951 -40.6063
3 743.823 541.217 102.675 63.0539 -103.861 178.903
4 727.126 541.616 102.457 65.4693 -105.865 -76.329
5 767.98 503.68 102.346 85.0523 -103.234 81.5037
6 770.739 470.186 102.525 110.81 -112.532 172.319
7 773.412 437.737 102.759 139.025 -114.452 -59.0158
8 758.983 669.373 103.264 125.779 -106.831 -125.871
9 724.787 822.347 65.7894 264.229 -250 0
10 800.404 691.307 100.242 153.404 -152.061 91.3299
