#Rx
# X(m), Y(m), Z(m), Distance(m), Power (dBm) Phase (deg)
1 685.005 563.673 189.275 158.965 -138.436 -40.056
2 688.357 524.167 187.712 160.269 -128.6 -127.796
3 692.255 478.225 188.432 175.684 -125.647 -164.712
4 740.902 564.345 187.397 145.029 -136.996 -111.085
5 719.09 541.808 186.326 147.426 -130.633 -105.437
6 672.091 542.932 189.398 165.306 -130.019 52.3151
7 763.469 558.43 187.379 145.913 -133.534 -66.0687
8 772.898 443.984 186.786 187.069 -117.205 11.4252
9 773.296 439.147 186.745 190.132 -121.172 -29.0869
10 748.384 716.787 185.85 212.438 -120.607 88.6333
