#Rx
# X(m), Y(m), Z(m), Distance(m), Power (dBm) Phase (deg)
1 674.727 684.803 186.774 203.626 -130.832 50.9979
2 691.348 488.922 188.264 171.112 -122.652 -21.2814
3 794.369 516.123 186.351 157.959 -125.774 30.4082
4 730.928 573.341 187.51 146.377 -132.51 -36.0999
5 660.472 543.21 190.352 171.611 -146.619 -81.4456
6 659.17 543.241 190.411 172.311 -137.589 -156.091
7 748.621 738.664 183.953 227.881 -115.018 138.965
8 751.894 698.94 186.617 200.255 -114.673 131.486
9 827.464 363.036 181.285 254.334 -118.98 146.765
10 810.185 440.328 185.255 197.011 -119.325 -140.148
