#Rx
# X(m), Y(m), Z(m), Distance(m), Power (dBm) Phase (deg)
1 676.705 661.488 108.216 139.345 -138.072 -100.872
2 682.247 596.181 109.306 99.1638 -130.147 82.2837
3 674.4 542.877 109.513 99.536 -114.477 -35.9929
4 751.101 708.562 106.515 161.838 -112.717 -151.377
5 753.86 675.072 107.483 132.375 -113.164 -40.6653
6 760.912 589.47 108.076 73.4025 -108.415 -174.889
7 762.459 570.698 107.712 68.0798 -104.59 90.9349
8 723.736 827.048 69.9402 269.374 -250 0
9 721.294 568.592 107.439 69.9877 -104.867 84.9799
