#Rx
# X(m), Y(m), Z(m), Distance(m), Power (dBm) Phase (deg)
1 673.388 700.577 185.749 213.42 -133.066 -177.596
2 687.561 533.556 188.024 159.012 -130.135 148.926
3 696.464 428.63 188.896 202.822 -126.163 -67.9279
4 699.062 398.015 187.406 222.336 -134.761 10.1296
5 659.347 543.236 190.411 172.222 -126.882 81.5503
6 752.415 692.609 186.94 196.169 -117.735 121.771
7 817.493 407.639 184.053 219.899 -126.438 -172.7
8 803.554 469.99 185.715 178.656 -132.793 137.853
9 776.6 590.568 187.554 151.343 -131.842 -82.2813
10 757.216 677.28 187.096 186.499 -120.136 -164.581
