#Rx
# X(m), Y(m), Z(m), Distance(m), Power (dBm) Phase (deg)
1 680.617 615.383 110.285 109.242 -130.623 62.8865
2 695.267 442.734 110.658 144.801 -140.773 144.077
3 800.766 539.855 107.776 87.5389 -108.72 169.814
4 764.322 548.083 108.625 69.6209 -109.599 173.945
5 748.996 734.114 106.039 185.361 -121.266 78.1594
6 755.943 649.784 109.498 112.452 -118.451 -89.264
7 826.401 367.791 103.313 217.034 -124.226 88.616
8 789.34 533.575 108.432 83.1901 -109.774 12.5304
9 786.78 670.174 107.666 134.331 -125.102 -163.006
10 745.354 605.913 109.721 81.3877 -106.755 -44.0114
