#Rx
# X(m), Y(m), Z(m), Distance(m), Power (dBm) Phase (deg)
1 699.179 396.628 134.778 193.374 -138.775 -70.8708
2 747.654 558.256 134.524 92.0321 -125.949 158.072
3 757.767 540.883 134.102 94.29 -126.876 140.922
4 759.343 608.514 135.497 105.715 -116.961 164.959
5 749.669 711.039 133.762 176.495 -133.047 -20.0779
6 810.694 438.054 132.73 164.904 -114.289 -62.7606
7 780.157 574.656 134.803 99.4839 -124.69 -11.2306
8 719.065 565.134 134.351 95.8337 -129.311 -7.61186
9 716.605 561.319 134.38 96.4543 -134.538 149.05
10 715.569 559.712 134.3 96.6904 -120.938 85.9986
