#Rx
# X(m), Y(m), Z(m), Distance(m), Power (dBm) Phase (deg)
1 688.787 519.097 134.892 116.096 -125.745 101.473
2 790.808 519.335 133.598 109.343 -116.567 31.7851
3 670.95 627.435 135.561 137.244 -126.74 101.431
4 742.961 541.237 133.539 92.9794 -126.5 64.5453
5 762.784 566.753 134.489 93.7285 -136.113 122.753
6 765.258 536.712 133.702 96.0558 -120.578 173.859
7 825.437 372.103 129.111 221.614 -113.38 50.4775
8 786.99 544.088 133.91 101.414 -123.553 132.412
9 773.729 603.408 134.733 105.621 -131.593 -166.249
10 787.423 671.171 133.039 149.224 -112.145 -74.4735
