#Rx
# X(m), Y(m), Z(m), Distance(m), Power (dBm) Phase (deg)
1 681.732 602.247 137.344 122.091 -125.261 11.6954
2 684.315 571.803 137.831 114.139 -127.428 44.3429
3 686.18 549.83 137.131 112.394 -120.736 -144.996
4 825.745 487.825 132.523 140.244 -117.426 -141.68
5 799.73 511.288 134.465 117.102 -119.095 -109.908
6 788.738 521.202 135.094 109.092 -118.936 167.773
7 737.354 567.545 135.757 93.9368 -127.751 102.418
8 663.494 634.16 136.973 145.697 -122.572 154.039
9 796.764 500.367 134.63 120.9 -129.247 151.223
10 722.404 833.003 98.149 279.61 -250 0
