#Rx
# X(m), Y(m), Z(m), Distance(m), Power (dBm) Phase (deg)
1 693.833 459.637 87.2442 121.631 -137.575 -35.1669
2 696.325 430.262 87.6717 146.075 -250 0
3 727.321 576.594 86.126 50.2539 -104.826 12.5449
4 749.979 722.185 83.8383 167.412 -114.395 -61.0612
5 757.012 636.815 86.4343 89.1627 -108.572 91.8373
6 768.417 498.377 84.8876 78.068 -126.645 -83.0871
7 771.672 458.857 84.9327 112.638 -111.87 160.058
8 773.412 437.737 85.2943 132.398 -111.07 -133.375
9 804.332 466.513 84.2814 117.84 -107.433 17.0867
10 722.762 570.869 85.8777 50.3759 -100.742 -135.494
