#Rx
# X(m), Y(m), Z(m), Distance(m), Power (dBm) Phase (deg)
1 680.82 612.997 188.767 168.655 -130.143 -75.6951
2 697.633 414.856 187.924 211.063 -146.901 169.138
3 660.959 636.446 188.463 185.403 -139.869 99.5747
4 774.523 540.483 187.091 148.642 -130.346 -162.824
5 727.328 541.611 186.434 146.277 -134.267 -84.6788
6 810.647 438.264 185.324 198.471 -121.537 -173.007
7 781.572 568.324 187.345 149.359 -138.004 139.916
8 745.235 730.876 184.905 222.422 -129.067 -145.41
9 741.839 746.064 183.597 233.535 -121.987 -157.346
10 725.967 817.067 149.764 279.258 -250 0
