#Rx
# X(m), Y(m), Z(m), Distance(m), Power (dBm) Phase (deg)
1 687.945 529.03 86.9695 79.4042 -111.792 27.2214
2 698.923 399.648 86.5632 172.825 -147.888 -90.6256
3 785.157 524.431 85.7177 68.2948 -113.474 -15.4911
4 749.49 728.116 83.9452 173.179 -110.156 24.7777
5 758.491 618.861 87.2455 74.971 -103.015 -152.845
6 771.985 455.059 85.4387 116.317 -110.798 22.8715
7 817.298 408.511 83.1131 172.279 -129.835 -147.877
8 752.817 696.957 85.6612 143.752 -109.429 155.575
9 722.585 832.196 48.6827 273.271 -250 0
