#Rx
# X(m), Y(m), Z(m), Distance(m), Power (dBm) Phase (deg)
1 699.178 396.643 84.7516 175.103 -155.339 4.33632
2 717.379 585.561 85.0241 57.2612 -124.383 15.0203
3 669.066 629.135 85.8852 112.155 -134.712 -26.388
4 837.293 538.982 80.8719 101.227 -127.172 57.1957
5 721.806 541.743 83.5055 50.9723 -112.342 47.1107
6 759.131 611.086 85.2606 67.8868 -104.869 -58.4635
7 763.807 554.325 84.5941 46.0353 -100.476 -164.446
8 770.063 478.391 83.7734 94.5552 -108.215 -105.165
9 795.691 505.165 83.6028 84.6382 -107.177 87.167
10 782.48 564.265 84.5325 55.8006 -105.995 144.573
