#Rx
# X(m), Y(m), Z(m), Distance(m), Power (dBm) Phase (deg)
1 685.864 553.555 102.329 85.0564 -119.613 94.3991
2 747.118 558.739 100.703 58.2038 -102.877 93.086
3 696.317 604.556 102.63 89.8134 -134.882 118.722
4 664.686 633.085 102.04 124.481 -133.786 -44.8748
5 815.462 416.725 98.0281 168.622 -116.564 146.03
6 775.738 594.424 101.288 74.3143 -103.835 2.56036
7 772.294 609.829 101.362 81.4633 -101.851 -104.946
8 755.021 687.099 100.511 139.993 -115.303 -60.8476
9 729.689 800.418 63.3047 241.865 -250 0
