#Rx
# X(m), Y(m), Z(m), Distance(m), Power (dBm) Phase (deg)
1 688.286 525.003 91.6868 83.5027 -112.13 -105.844
2 749.1 732.858 88.4221 178.874 -110.977 -55.6179
3 750.453 716.426 89.643 163.429 -114.461 13.2409
4 828.408 358.81 84.8138 221.488 -131.928 -51.6644
5 823.454 380.974 86.4889 199.956 -131.889 129.979
6 814.779 419.778 88.5216 162.815 -124.641 122.79
7 752.452 698.589 90.5932 146.831 -110.02 -27.3887
8 747.074 722.649 89.3467 169.258 -117.253 -40.5135
9 735.857 772.825 85.3855 217.335 -114.355 -81.8631
10 765.997 637.935 91.7655 94.3316 -107.522 -159.265
