#Rx
# X(m), Y(m), Z(m), Distance(m), Power (dBm) Phase (deg)
1 699.178 396.643 137.023 194.443 -136.137 -4.7871
2 717.379 585.561 137.296 102.246 -120.596 -13.6997
3 669.066 629.135 138.157 140.869 -130.392 -99.867
4 837.293 538.982 133.143 130.339 -118.574 -165.98
5 721.806 541.743 135.777 98.0555 -128.781 73.9709
6 759.131 611.086 137.532 108.668 -118.974 93.324
7 763.807 554.325 136.866 96.1756 -119.942 106.621
8 770.063 478.391 136.045 126.433 -116.636 -168.585
9 795.691 505.165 135.874 119.124 -124.445 -50.1252
10 782.48 564.265 136.804 101.182 -122.225 40.52
