#Rx
# X(m), Y(m), Z(m), Distance(m), Power (dBm) Phase (deg)
1 689.719 508.122 108.518 101.065 -124.872 90.282
2 695.014 445.715 109.637 142.003 -138.228 166.14
3 749.603 726.75 105.634 178.329 -115.794 -93.3539
4 778.381 582.598 108.098 76.5459 -113.358 70.1863
5 811.505 434.425 105.819 155.133 -112.507 -75.3512
6 792.688 679.337 105.914 142.967 -135.21 -100.958
7 784.596 666.786 106.953 130.553 -110.818 -25.4012
8 770.629 645.12 108.134 110.257 -107.282 54.9778
9 717.934 563.38 107.463 70.8255 -110.354 156.143
10 715.279 559.262 107.63 71.9943 -107.29 -163.784
