#Rx
# X(m), Y(m), Z(m), Distance(m), Power (dBm) Phase (deg)
1 678.144 644.528 96.1662 120.942 -126.324 166.041
2 691.569 486.319 95.9556 106.05 -120.462 67.2364
3 668.24 543.024 97.4585 96.7087 -116.686 -24.9314
4 773.073 441.856 94.3401 131.817 -111.2 -103.112
5 756.774 639.696 95.5364 96.3218 -109.884 18.2291
6 758.925 613.591 95.8374 76.6903 -103.725 132.808
7 768.153 501.581 94.1539 81.0504 -103.46 171.598
8 779.189 658.398 94.4441 116.101 -124.308 44.987
9 768.436 641.718 95.4931 99.9345 -107.047 -82.6032
10 716.98 561.9 94.5534 59.6062 -101.786 -107.759
