#Rx
# X(m), Y(m), Z(m), Distance(m), Power (dBm) Phase (deg)
1 686.094 550.843 89.2797 76.5425 -124.896 36.8521
2 745.043 560.611 87.7892 45.2799 -98.1134 -113.749
3 694.488 606.206 89.649 83.7213 -132.196 144.39
4 663.93 633.766 89.087 119.771 -137.171 113.759
5 814.81 419.639 85.2218 162.047 -124.612 -19.8099
6 775.152 597.045 88.3791 65.7637 -103.818 -43.8779
7 771.708 612.45 88.4529 74.3065 -103.919 -100.901
8 754.46 689.609 87.5072 137.454 -128.249 118.397
9 729.151 802.825 50.3592 243.535 -250 0
