#Rx
# X(m), Y(m), Z(m), Distance(m), Power (dBm) Phase (deg)
1 673.388 700.577 98.4798 167.826 -143.347 87.2204
2 687.561 533.556 100.754 86.6331 -114.33 -30.1668
3 696.464 428.63 101.627 152.332 -250 0
4 699.062 398.015 100.137 178.218 -149.807 -59.0223
5 659.347 543.236 103.142 107.072 -136.338 89.7362
6 752.415 692.609 99.6704 144.541 -108.723 145.164
7 817.493 407.639 96.7833 176.831 -112.478 -55.2275
8 803.554 469.99 98.4452 120.588 -110.492 -93.1551
9 776.6 590.568 100.284 72.16 -108.853 76.6638
10 757.216 677.28 99.8266 131.012 -108.172 -21.3203
