#Rx
# X(m), Y(m), Z(m), Distance(m), Power (dBm) Phase (deg)
1 688.158 526.513 137.855 116.426 -115.595 162.582
2 698.996 398.791 137.546 192.943 -139.74 0.442771
3 783.161 526.232 136.71 106.735 -123.061 137.456
4 749.733 725.167 135.171 189.413 -131.814 -134.803
5 758.687 616.476 138.221 111.842 -118.313 -19.661
6 772.141 453.172 136.459 144.635 -116.305 -161.931
7 816.709 411.145 134.22 188.59 -128.653 -123.246
8 752.181 699.803 136.577 168.61 -110.815 -47.5922
9 722.54 832.395 99.664 279.31 -250 0
