#Rx
# X(m), Y(m), Z(m), Distance(m), Power (dBm) Phase (deg)
1 689.136 514.992 135.995 118.305 -119.642 -24.5232
2 787.322 522.479 134.668 107.731 -124.186 -1.28236
3 669.119 629.086 136.581 139.751 -125.506 157.369
4 739.308 541.325 134.53 94.1208 -127.057 -51.6594
5 763.135 562.493 135.477 94.5523 -137.355 -176.979
6 765.59 532.691 134.615 98.0324 -118.669 -60.6747
7 824.519 376.209 130.46 218.351 -113.773 -177.141
8 785.986 548.579 135.01 101.406 -116.922 33.7942
9 772.825 607.453 135.827 108.06 -119.008 43.5671
10 785.254 667.807 134.276 146.908 -114.033 -149.974
