#Rx
# X(m), Y(m), Z(m), Distance(m), Power (dBm) Phase (deg)
1 677.614 650.777 188.308 184.852 -132.967 -138.189
2 699.088 397.705 187.547 222.648 -136.714 -0.982991
3 740.663 541.292 186.649 145.432 -130.062 -33.5492
4 724.148 541.687 186.433 146.706 -133.231 -117.619
5 768.164 501.448 186.364 156.874 -123.434 112.106
6 770.956 467.554 186.542 172.946 -130.709 168.162
7 773.424 437.59 186.777 191.168 -125.195 165.205
8 758.438 671.81 187.222 183.287 -119.864 170.603
9 724.466 823.781 149.804 285.576 -250 0
10 799.087 689.264 184.469 199.188 -119.26 -61.3651
