#Rx
# X(m), Y(m), Z(m), Distance(m), Power (dBm) Phase (deg)
1 686.039 613.826 138.85 125.584 -125.047 -179.788
2 661.8 543.178 140.259 130.096 -129.028 -61.1652
3 755.259 658.089 137.849 137.092 -112.096 -56.2167
4 773.149 440.93 136.709 154.226 -120.711 171.617
5 773.412 437.736 136.774 156.79 -114.953 50.5585
6 804.317 466.578 135.662 144.233 -121.908 20.3213
7 782.714 563.216 137.174 101.573 -121.064 -68.7813
8 779.446 577.837 137.377 102.147 -125.235 -103.928
9 744.844 732.624 134.631 195.664 -133.157 11.7658
10 733.793 587.981 137.923 100.165 -122.854 -153.32
