#Rx
# X(m), Y(m), Z(m), Distance(m), Power (dBm) Phase (deg)
1 676.813 660.214 188.115 189.806 -139.254 -24.9482
2 682.339 595.09 189.153 163.659 -124.941 -37.3618
3 673.387 542.901 189.408 164.742 -126.128 35.7212
4 751.216 707.171 186.379 205.866 -116.211 -42.2637
5 753.974 673.685 187.347 184.287 -116.762 58.6303
6 761.034 587.993 187.882 148.791 -132.454 148.288
7 762.578 569.253 187.518 146.233 -136.818 -112.146
8 723.598 827.662 149.764 289.215 -250 0
9 720.881 567.951 187.237 147.092 -131.577 -166.958
