#Rx
# X(m), Y(m), Z(m), Distance(m), Power (dBm) Phase (deg)
1 681.732 602.247 188.999 165.44 -135.278 -158.145
2 684.315 571.803 189.486 159.819 -125.501 -83.6435
3 686.18 549.83 188.786 158.349 -140.129 13.648
4 825.745 487.825 184.178 177.86 -118.835 -105.56
5 799.73 511.288 186.12 160.871 -138.8 108.993
6 788.738 521.202 186.749 155.347 -132.257 9.82544
7 737.354 567.545 187.412 145.342 -138.612 97.2432
8 663.494 634.16 188.628 183.449 -132.27 12.199
9 796.764 500.367 186.285 163.708 -129.744 19.1046
10 722.404 833.003 149.804 294.273 -250 0
