#Rx
# X(m), Y(m), Z(m), Distance(m), Power (dBm) Phase (deg)
1 673.267 702.006 185.666 214.349 -132.788 35.0732
2 687.441 534.961 188.078 158.877 -122.107 125.069
3 696.357 429.89 188.985 202.099 -133.974 -109.281
4 699.036 398.321 187.406 222.118 -135.969 -36.0744
5 659.464 543.234 190.412 172.164 -134.089 -5.56369
6 752.306 693.932 186.902 197.034 -125.57 120.065
7 817.78 406.353 183.991 220.846 -121.341 -31.6859
8 803.84 468.713 185.695 179.379 -118.904 -102.737
9 776.953 588.986 187.532 151.082 -137.495 69.5288
10 757.557 675.752 187.131 185.59 -117.788 73.6899
