#Rx
# X(m), Y(m), Z(m), Distance(m), Power (dBm) Phase (deg)
1 678.144 644.528 88.5158 117.749 -125.499 61.2377
2 691.569 486.319 88.3052 102.409 -116.55 -55.9488
3 668.24 543.024 89.8081 92.5773 -118.076 121.003
4 773.073 441.856 86.6897 129.002 -107.567 149.934
5 756.774 639.696 87.886 92.3324 -108.326 -80.5303
6 758.925 613.591 88.187 71.5835 -112.641 -11.2308
7 768.153 501.581 86.5035 76.4049 -105.662 -172.632
8 779.189 658.398 86.7937 112.888 -123.895 150.337
9 768.436 641.718 87.8427 96.0987 -107.831 -134.629
10 716.98 561.9 86.903 53.0597 -112.286 -139.889
