#Rx
# X(m), Y(m), Z(m), Distance(m), Power (dBm) Phase (deg)
1 682.963 587.743 189.452 162.269 -124.805 70.3605
2 696.006 434.023 189.125 199.654 -126.237 47.4526
3 697.715 413.884 187.856 211.667 -131.064 120.995
4 777.767 540.405 186.994 149.214 -139.635 -77.3106
5 761.864 577.919 187.722 147.157 -146.8 -98.5918
6 762.889 565.476 187.473 146.033 -142.038 -125.062
7 764.091 550.88 187.283 146.171 -143.411 -93.9511
8 736.462 770.117 181.846 252.291 -121.14 -173.167
9 723.01 830.293 149.664 291.661 -250 0
10 715.586 559.737 186.93 147.574 -129.662 67.0828
