#Rx
# X(m), Y(m), Z(m), Distance(m), Power (dBm) Phase (deg)
1 675.08 680.641 187.058 201.181 -140.178 67.3378
2 699.191 396.487 187.508 223.491 -127.225 -0.636428
3 843.841 471.505 183.065 192.759 -117.279 16.5019
4 673.649 625.001 188.586 175.482 -137.547 14.5497
5 834.643 539.045 183.813 168.105 -121.674 -71.3649
6 773.272 439.443 186.739 189.936 -119.225 13.1301
7 793.335 515.707 186.563 157.955 -130.606 -59.9879
8 751.868 701.202 186.545 201.778 -134.482 -165.606
9 742.105 744.874 183.688 232.639 -116.497 -36.258
10 718.211 563.809 186.926 147.101 -137.848 -18.1012
