#Rx
# X(m), Y(m), Z(m), Distance(m), Power (dBm) Phase (deg)
1 689.611 509.386 87.9434 88.3424 -123.652 126.753
2 694.874 447.365 89.0562 132.158 -139.759 123.479
3 749.513 727.843 84.9892 173.167 -106.557 172.397
4 778.647 581.411 87.5269 59.578 -106.27 81.3201
5 811.796 433.125 85.244 149.169 -121.247 -66.1918
6 793.426 680.482 85.2401 136.344 -133.726 -139.038
7 785.323 667.913 86.3311 122.925 -126.544 -171.3
8 771.26 646.099 87.521 100.378 -113.029 3.27147
9 718.205 563.8 86.9254 52.5219 -115.939 136.114
10 715.327 559.336 87.0746 54.0932 -119.276 -96.1847
