#Rx
# X(m), Y(m), Z(m), Distance(m), Power (dBm) Phase (deg)
1 693.971 458.005 188.749 185.72 -132.334 -122.43
2 696.429 429.044 189.065 202.685 -135.48 80.8375
3 726.356 577.464 187.62 147.458 -130.853 95.3113
4 750.098 720.74 185.437 215.125 -114.148 113.697
5 757.124 635.456 187.927 164.194 -123.809 -69.2023
6 768.528 497.025 186.369 158.634 -126.704 -25.053
7 771.759 457.802 186.413 178.36 -125.842 -105.277
8 773.419 437.649 186.776 191.129 -120.353 123.127
9 804.043 467.806 185.781 179.976 -122.566 51.3414
10 722.297 570.147 187.327 147.082 -143.608 116.57
