#Rx
# X(m), Y(m), Z(m), Distance(m), Power (dBm) Phase (deg)
1 676.921 658.943 188.189 189.156 -127.548 -22.1523
2 682.432 593.998 189.177 163.413 -125.445 2.49823
3 672.411 542.924 189.476 165.233 -127.061 -121.717
4 751.33 705.784 186.419 204.908 -120.391 -102.471
5 754.089 672.295 187.387 183.47 -121.195 -115.654
6 761.156 586.515 187.864 148.515 -139.83 117.912
7 762.697 567.808 187.501 146.145 -142.422 82.8164
8 723.469 828.241 149.764 289.761 -250 0
9 720.482 567.333 187.211 147.104 -136.328 -167.86
