#Rx
# X(m), Y(m), Z(m), Distance(m), Power (dBm) Phase (deg)
1 699.211 396.253 99.3953 179.546 -147.479 146.51
2 712.893 589.607 100.109 72.7233 -123.199 -108.263
3 666.548 631.405 100.504 121.545 -131.755 93.0834
4 832.351 539.1 95.8587 103.624 -126.462 60.5068
5 716.1 541.879 98.2031 65.7461 -100.565 153.455
6 759.596 605.443 99.8366 74.3959 -111.322 -118.55
7 764.293 548.435 99.0536 60.5311 -103.211 158.603
8 770.455 473.63 98.4221 105.747 -108.142 53.8203
9 794.348 511.175 98.3391 88.5253 -103.859 -33.0106
10 781.299 569.548 99.249 67.4903 -106.457 51.3402
