#Rx
# X(m), Y(m), Z(m), Distance(m), Power (dBm) Phase (deg)
1 778.435 530.494 107.348 78.261 -104.562 -80.8226
2 795.633 539.978 107.129 83.894 -106.875 71.6393
3 762.501 570.187 108.095 68.3784 -109.132 -165.975
4 764.35 547.734 107.61 68.7273 -106.918 -115.033
5 769.358 486.953 106.945 100.158 -111.748 38.4271
6 773.244 439.776 107.297 139.254 -112.379 -27.0203
7 810.663 438.193 105.787 151.725 -112.105 79.1276
8 807.447 452.577 106.01 139.09 -108.5 -129.456
9 723.701 572.326 107.942 70.2053 -107.292 -103.789
10 717.191 562.228 107.464 71.0787 -99.6168 -86.9699
