#Rx
# X(m), Y(m), Z(m), Distance(m), Power (dBm) Phase (deg)
1 677.72 649.526 104.991 128.761 -123.69 -114.043
2 699.114 397.399 104.217 180.121 -148.785 171.142
3 739.086 541.33 103.297 63.9518 -110.684 -125.136
4 722.657 541.723 103.082 67.4265 -103.734 1.57462
5 768.256 500.33 103.034 87.8485 -107.919 163.166
6 771.061 466.276 103.213 114.436 -107.724 -170.371
7 773.427 437.561 103.447 139.482 -113.885 79.46
8 758.166 673.027 103.864 129.173 -107.443 47.5855
9 724.314 824.459 66.4733 266.425 -250 0
10 798.43 688.244 101.244 150.478 -138.82 143.342
