#Rx
# X(m), Y(m), Z(m), Distance(m), Power (dBm) Phase (deg)
1 673.648 697.518 185.929 211.45 -133.981 37.1937
2 793.264 517.12 186.567 157.548 -127.66 179.241
3 757.913 549.003 186.997 145.38 -133.613 -83.9363
4 723.797 579.772 187.659 148.15 -134.989 41.809
5 806.831 455.334 185.628 187.441 -124.405 -126.986
6 803.342 470.941 185.729 178.122 -118.672 95.1021
7 784.768 554.03 187.147 149.848 -127.391 -61.5342
8 758.132 673.181 187.291 184.159 -119.392 -43.9151
9 754.609 620.269 188.125 157.818 -126.373 171.294
10 715.569 559.712 186.93 147.578 -134.656 -176.33
