#Rx
# X(m), Y(m), Z(m), Distance(m), Power (dBm) Phase (deg)
1 679.866 624.237 138.595 133.153 -147.478 91.6002
2 685.887 553.276 138.917 113.8 -129.699 10.8595
3 824.69 488.777 134.391 140.372 -117.097 14.1329
4 749.202 541.088 136.62 96.0318 -135.175 178.527
5 667.524 543.041 139.818 126.144 -126.544 -146.262
6 757.144 635.208 137.929 121.995 -111.43 126.614
7 759.766 603.378 137.925 105.701 -124.585 136.707
8 768.93 492.149 136.374 118.057 -120.946 171.01
9 724.823 822.186 99.664 269.174 -250 0
10 799.242 689.504 134.444 167.498 -114.426 177.589
