#Rx
# X(m), Y(m), Z(m), Distance(m), Power (dBm) Phase (deg)
1 679.451 629.127 99.5032 111.598 -127.995 100.252
2 685.577 556.931 100.018 83.4626 -122.9 -105.891
3 827.583 486.167 95.1519 121.971 -124.186 50.8838
4 753.105 540.995 97.6327 58.7256 -110.239 -105.296
5 669.978 542.982 100.608 97.1741 -120.611 57.0927
6 756.81 639.268 98.8515 97.8422 -110.398 -97.4737
7 759.406 607.755 98.9388 75.1192 -107.695 -15.1415
8 768.582 496.366 97.3308 86.9656 -103.736 53.8229
9 725.346 819.843 60.6253 261.29 -250 0
10 801.613 693.182 95.0235 153.579 -250 0
