#Rx
# X(m), Y(m), Z(m), Distance(m), Power (dBm) Phase (deg)
1 679.281 631.13 111.632 119.527 -120.764 42.6502
2 690.443 499.581 111.209 107.026 -120.847 -98.4488
3 749.143 732.327 107.449 184.179 -122.26 -69.4423
4 750.531 715.479 108.985 169.149 -110.398 -67.6734
5 765.561 533.035 109.558 74.8554 -106.559 -92.5837
6 769.497 485.264 109.493 103.065 -108.024 -11.2789
7 808.974 445.747 108.411 146.152 -114.979 -100.501
8 769.552 622.094 110.97 95.3695 -106.653 -104.877
9 730.939 794.827 102.731 242.89 -117.26 -110.379
10 715.731 559.963 109.898 73.8617 -105.747 -133.389
