#Rx
# X(m), Y(m), Z(m), Distance(m), Power (dBm) Phase (deg)
1 688.265 525.253 109.309 94.8734 -117.648 119.383
2 699.029 398.402 109.048 180.958 -160.604 -52.6386
3 782.161 527.133 108.228 81.8836 -113.411 91.6284
4 749.854 723.695 106.795 175.902 -120.981 -17.6178
5 758.785 615.285 109.71 87.9423 -105.962 -111.608
6 772.215 452.27 107.979 128.753 -113.166 72.5464
7 816.414 412.465 105.786 175.291 -113.283 119.299
8 751.863 701.224 108.047 155.794 -122.646 108.218
9 722.528 832.452 71.1664 274.957 -250 0
