#Rx
# X(m), Y(m), Z(m), Distance(m), Power (dBm) Phase (deg)
1 688.372 523.991 137.814 117.038 -128.656 -168.701
2 699.059 398.042 137.546 193.554 -136.13 78.2837
3 845.106 470.363 132.977 161.365 -125.721 21.7611
4 781.16 528.037 136.741 105.521 -122.342 155.308
5 749.976 722.222 135.415 186.977 -113.62 159.216
6 758.883 614.096 138.193 110.657 -132.798 102.52
7 772.287 451.393 136.495 146.004 -118.197 -156.657
8 816.119 413.787 134.347 186.35 -119.055 -6.49695
9 751.546 702.642 136.512 170.913 -113.744 -109.382
10 722.521 832.48 99.664 279.396 -250 0
