#Rx
# X(m), Y(m), Z(m), Distance(m), Power (dBm) Phase (deg)
1 698.344 406.47 187.537 216.498 -127.82 -51.8682
2 724.442 541.68 186.436 146.667 -131.316 95.3898
3 761.008 588.303 187.886 148.85 -137.025 178.68
4 763.37 559.637 187.404 145.918 -132.182 66.4045
5 800.154 485.203 185.95 170.582 -123.274 -80.4154
6 791.12 525.612 186.582 154.827 -128.136 61.0257
7 784.453 555.439 187.207 149.775 -132.647 -152.691
8 724.091 825.458 149.804 287.153 -250 0
9 722.607 832.096 149.764 293.401 -250 0
10 715.231 559.188 187.076 147.793 -137.412 144.247
