#Rx
# X(m), Y(m), Z(m), Distance(m), Power (dBm) Phase (deg)
1 680.298 619.142 109.133 110.685 -127.656 -52.1775
2 694.956 446.396 109.515 141.418 -134.6 -157.823
3 804.863 539.757 106.407 89.1947 -112.719 78.6699
4 764.05 551.386 107.643 68.1213 -107.252 -38.06
5 748.682 737.931 104.638 188.48 -119.977 -32.4007
6 755.588 654.098 108.371 115.249 -110.038 -19.6927
7 827.236 364.053 101.946 220.285 -127.274 -177.32
8 790.199 529.733 107.274 84.0376 -104.376 150.987
9 789.169 673.878 106.362 137.503 -132.446 -176.203
10 747.651 609.476 108.643 82.5976 -114.343 -101.303
