#Rx
# X(m), Y(m), Z(m), Distance(m), Power (dBm) Phase (deg)
1 682.426 594.072 143.495 124.088 -124.375 -151.514
2 683.768 578.256 143.696 120.175 -122.403 74.9247
3 688.861 518.235 141.984 122.072 -123.394 -75.9093
4 659.969 543.222 144.427 134.414 -124.404 53.15
5 754.097 672.199 141.569 149.881 -133.118 126.386
6 755.359 656.877 142.04 139.198 -112.452 -23.6433
7 760.426 595.368 142.009 106.566 -125.568 75.0301
8 772.63 447.228 140.899 152.002 -116.861 -69.1257
9 800.103 485.428 140.133 134.223 -117.751 51.9022
10 779.61 577.103 141.686 106.092 -133.629 -73.8474
