#Rx
# X(m), Y(m), Z(m), Distance(m), Power (dBm) Phase (deg)
1 699.179 396.628 187.408 223.325 -130.923 142.51
2 747.654 558.256 187.154 144.65 -136.654 -1.79736
3 757.767 540.883 186.732 145.945 -136.038 105.2
4 759.343 608.514 188.127 154.052 -131.437 133.394
5 749.669 711.039 186.392 208.625 -139.22 124.226
6 810.694 438.054 185.36 198.641 -120.125 138.598
7 780.157 574.656 187.433 149.6 -132.466 -172.491
8 719.065 565.134 186.98 147.036 -145.024 175.09
9 716.605 561.319 187.01 147.452 -153.708 -34.9906
10 715.569 559.712 186.93 147.578 -134.656 -176.33
