#Rx
# X(m), Y(m), Z(m), Distance(m), Power (dBm) Phase (deg)
1 673.303 701.589 94.4704 167.424 -132.778 -6.78299
2 796.01 514.643 95.1577 85.6071 -113.173 103.632
3 760.767 546.429 95.7337 56.8641 -101.765 -140.796
4 727.124 576.772 96.389 59.4901 -104.984 -17.6416
5 807.709 451.404 94.3474 135.229 -114.199 -101.555
6 804.222 467.006 94.449 121.384 -106.186 -128.787
7 785.609 550.265 95.8752 67.157 -107.135 -45.3157
8 758.937 669.581 96.1541 122.685 -106.429 31.9188
9 756.922 623.858 96.8352 84.5389 -110.166 14.3096
10 715.665 559.861 95.7086 61.228 -104.36 -41.9189
