#Rx
# X(m), Y(m), Z(m), Distance(m), Power (dBm) Phase (deg)
1 699.191 396.488 137.508 194.806 -135.734 -91.621
2 716.258 586.572 137.891 103.371 -129.51 -151.645
3 668.395 629.739 138.635 141.857 -129.072 97.2067
4 836.057 539.011 133.714 129.871 -117.752 -126.386
5 720.382 541.777 136.243 98.8523 -122.124 -47.2731
6 759.248 609.674 138 108.438 -120.637 67.5083
7 763.929 552.851 137.305 96.7265 -124.633 -58.2135
8 770.161 477.199 136.531 127.582 -119.289 -158.324
9 795.356 506.666 136.383 118.702 -127.48 165.724
10 782.184 565.587 137.307 101.609 -126.888 -108.022
