#Rx
# X(m), Y(m), Z(m), Distance(m), Power (dBm) Phase (deg)
1 674.611 686.172 136.694 172.869 -131.847 84.7283
2 691.226 490.358 138.242 130.431 -121.79 -64.4229
3 795.423 515.172 136.278 115.074 -111.673 -60.9323
4 731.841 572.517 137.496 96.8348 -130.261 -143.267
5 660.754 543.203 140.332 130.826 -133.877 -173.693
6 659.2 543.24 140.411 131.899 -135.746 66.3931
7 748.504 740.086 133.835 201.929 -112.895 59.3181
8 751.783 700.279 136.578 168.991 -108.361 166.502
9 827.798 361.541 131.172 232.24 -113.667 -66.8106
10 810.487 438.978 135.235 165.53 -115.721 67.1269
