#Rx
# X(m), Y(m), Z(m), Distance(m), Power (dBm) Phase (deg)
1 679.577 627.639 88.6979 105.447 -143.747 -88.2794
2 690.808 495.279 88.3047 96.5959 -114.156 179.396
3 749.449 728.62 84.7848 173.87 -119.686 -77.2371
4 750.839 711.744 86.3224 158.013 -107.465 72.7855
5 765.822 529.87 86.4877 56.8646 -110.874 -117.758
6 769.811 481.45 86.5265 93.1308 -108.488 -17.0031
7 808.139 449.48 85.4972 133.876 -111.077 -99.4769
8 768.716 625.833 87.97 83.1587 -106.352 126.593
9 730.079 798.671 49.764 239.311 -250 0
10 715.586 559.737 86.9296 53.8238 -115.033 -70.2824
