#Rx
# X(m), Y(m), Z(m), Distance(m), Power (dBm) Phase (deg)
1 699.157 396.892 110.942 182.974 -150.002 -125.968
2 749.904 556.227 110.654 68.3462 -99.8041 -31.6285
3 760.558 540.816 110.303 71.9304 -107.342 96.4824
4 759.163 610.703 111.687 86.762 -104.015 -19.0815
5 750.201 708.66 110.007 163.314 -109.912 -12.2907
6 811.273 435.462 108.854 155.467 -110.064 -41.7377
7 780.738 572.058 110.931 77.6642 -102.888 138.249
8 719.733 566.171 110.557 73.1891 -103.652 71.1074
9 717.073 562.045 110.535 73.9361 -106.272 -81.5019
10 715.617 559.787 110.463 74.4241 -107.31 -22.7758
