#Rx
# X(m), Y(m), Z(m), Distance(m), Power (dBm) Phase (deg)
1 678.144 644.528 188.516 181.833 -134.168 17.1916
2 691.569 486.319 188.305 172.174 -123.579 45.1319
3 668.24 543.024 189.808 167.414 -125.77 72.3587
4 773.073 441.856 186.69 188.347 -123.121 64.2219
5 756.774 639.696 187.886 166.126 -122.351 56.0731
6 758.925 613.591 188.187 155.746 -129.522 45.9713
7 768.153 501.581 186.503 156.951 -124.448 -60.9941
8 779.189 658.398 186.794 177.757 -121.42 133.883
9 768.436 641.718 187.843 168.222 -125.652 102.08
10 716.98 561.9 186.903 147.279 -140.201 116.05
