#Rx
# X(m), Y(m), Z(m), Distance(m), Power (dBm) Phase (deg)
1 689.136 514.992 87.9946 85.5974 -123.392 -71.8385
2 787.322 522.479 86.6681 71.162 -114.216 137.227
3 669.119 629.086 88.5813 113.159 -132.173 -176.39
4 739.308 541.325 86.5299 48.2713 -101.655 17.1784
5 763.135 562.493 87.4769 48.1728 -125.516 -113.828
6 765.59 532.691 86.6148 55.4399 -104.529 -121.986
7 824.519 376.209 82.4596 203.812 -131.084 54.9092
8 785.986 548.579 87.0104 60.897 -114.248 14.8265
9 772.825 607.453 87.8274 70.8788 -109.203 -80.3334
10 785.254 667.807 86.2765 122.791 -132.087 20.5757
