#Rx
# X(m), Y(m), Z(m), Distance(m), Power (dBm) Phase (deg)
1 688.187 526.169 86.8811 80.3394 -114.318 -145.664
2 748.985 734.248 83.4583 179.017 -121.58 14.1713
3 750.336 717.847 84.6767 163.436 -115.84 -106.998
4 823.764 379.584 81.5352 200.298 -134.048 175.149
5 815.07 418.477 83.6107 162.75 -127.352 -130.822
6 752.742 697.292 85.7745 144.101 -108.433 -178.696
7 747.337 721.47 84.5888 166.865 -113.202 92.3537
8 736.106 771.711 80.6226 215.339 -113.083 125.236
9 766.602 638.873 86.8983 92.8142 -106.299 109.08
