#Rx
# X(m), Y(m), Z(m), Distance(m), Power (dBm) Phase (deg)
1 774.899 533.684 84.6368 57.4562 -103.908 40.6041
2 749.069 556.98 85.0324 42.7264 -103.174 9.55805
3 736.809 568.037 85.0802 44.2734 -108.684 -104.516
4 663.117 634.5 86.384 119.764 -139.368 87.61
5 728.938 541.572 84.1153 48.5856 -100.101 16.6557
6 767.369 511.089 84.1127 67.6652 -104.128 62.5187
7 772.938 443.499 84.4162 126.701 -110.942 35.1229
8 758.202 672.87 85.0979 121.248 -115.242 -57.9953
9 795.637 505.406 84.1231 84.7049 -108.504 -97.3996
10 715.231 559.188 84.8364 52.3235 -107.997 165.292
