#Rx
# X(m), Y(m), Z(m), Distance(m), Power (dBm) Phase (deg)
1 681.829 601.107 139.024 122.963 -124.941 5.7008
2 684.429 570.457 139.434 115.291 -123.299 -113.285
3 686.289 548.547 138.737 113.814 -137.716 104.965
4 824.904 488.583 134.236 140.49 -119.823 152.443
5 798.719 512.2 136.19 117.632 -120.508 -148.553
6 787.732 522.109 136.735 109.786 -118.441 137.309
7 736.311 568.486 137.428 95.7742 -125.622 120.023
8 663.141 634.478 138.624 147.132 -128.629 53.9367
9 796.451 501.766 136.307 121.374 -115.012 166.675
10 722.392 833.06 99.804 280.001 -250 0
