#Rx
# X(m), Y(m), Z(m), Distance(m), Power (dBm) Phase (deg)
1 674.727 684.803 134.137 170.436 -126.653 -157.163
2 691.348 488.922 135.628 129.257 -123.518 -113.187
3 794.369 516.123 133.714 112.163 -115.181 -161.942
4 730.928 573.341 134.873 94.5181 -123.813 117.537
5 660.472 543.21 137.715 129.067 -128.527 171.221
6 659.17 543.241 137.775 129.974 -123.026 59.86
7 748.621 738.664 131.316 199.529 -120.904 -148.168
8 751.894 698.94 133.98 166.444 -109.101 -171.268
9 827.464 363.036 128.648 229.888 -115.549 171.607
10 810.185 440.328 132.619 162.967 -108.281 141.351
