#Rx
# X(m), Y(m), Z(m), Distance(m), Power (dBm) Phase (deg)
1 674.991 681.687 109.352 155.936 -133.002 -23.7887
2 699.178 396.643 109.864 182.791 -142.183 -176.746
3 844.784 470.654 105.355 147.271 -127.337 -76.8135
4 674.377 624.344 110.949 118.119 -135.017 -144.815
5 835.813 539.017 106.087 112.013 -121.285 -98.3186
6 773.244 439.778 109.088 140.094 -111.847 -86.6258
7 793.641 514.338 108.897 93.5954 -112.054 -3.79042
8 752.202 699.708 108.935 154.814 -109.519 -84.0775
9 742.407 743.526 106.148 194.275 -116.507 145.608
10 718.501 564.26 109.3 72.3426 -107.002 -69.3862
