#Rx
# X(m), Y(m), Z(m), Distance(m), Power (dBm) Phase (deg)
1 685.979 552.199 138.736 113.668 -123.499 134.609
2 746.079 559.676 137.178 94.6552 -121.487 1.23434
3 695.402 605.382 139.072 118.073 -142.52 23.22
4 664.299 633.434 138.495 145.87 -120.381 78.624
5 815.136 418.182 134.557 182.653 -113.819 60.6101
6 775.445 595.733 137.766 105.901 -116.711 132.463
7 772.002 611.137 137.839 111.249 -122.864 -117.441
8 754.74 688.353 136.941 159.579 -121.902 -47.8303
9 729.42 801.621 99.764 248.862 -250 0
