#Rx
# X(m), Y(m), Z(m), Distance(m), Power (dBm) Phase (deg)
1 686.324 548.128 188.581 158.224 -127.19 -6.4633
2 742.968 562.482 187.226 144.755 -135.83 -60.2354
3 692.66 607.855 189.018 163.083 -124.678 126.608
4 663.253 634.377 188.485 183.532 -131.902 108.539
5 847.635 538.734 182.91 174.614 -121.421 -146.624
6 814.159 422.553 184.766 209.214 -117.127 -77.7715
7 774.565 599.669 187.82 153.299 -131.175 -15.2075
8 771.123 615.068 187.894 157.468 -120.243 110.122
9 753.899 692.115 186.854 195.827 -118.956 -2.45305
10 728.614 805.224 149.764 268.212 -250 0
