#Rx
# X(m), Y(m), Z(m), Distance(m), Power (dBm) Phase (deg)
1 673.267 702.006 101.303 170.032 -130.165 4.8463
2 687.441 534.961 103.715 88.3202 -115.984 -33.43
3 696.357 429.89 104.622 152.478 -250 0
4 699.036 398.321 103.044 178.909 -145.217 -35.9677
5 659.464 543.234 106.049 108.651 -130.215 -119.173
6 752.306 693.932 102.539 146.899 -108.147 120.054
7 817.78 406.353 99.6288 178.944 -114.141 -23.4796
8 803.84 468.713 101.332 123.034 -109.771 87.2073
9 776.953 588.986 103.17 74.0015 -107.854 -109.21
10 757.557 675.752 102.769 131.002 -109.093 -54.5733
