#Rx
# X(m), Y(m), Z(m), Distance(m), Power (dBm) Phase (deg)
1 688.088 527.34 116.463 99.4361 -118.833 31.5726
2 748.87 735.641 112.88 189.23 -115.137 -145.262
3 750.22 719.261 114.097 174.656 -111.315 122.97
4 824.076 378.191 110.967 209.368 -115.364 -80.8102
5 815.362 417.17 113.085 173.754 -114.266 16.1921
6 753.032 695.993 115.342 154.422 -111.515 56.5247
7 747.601 720.288 114.217 175.598 -126.642 -112.425
8 736.355 770.597 110.245 221.428 -120.682 67.4092
9 767.205 639.809 116.417 110.812 -108.333 30.1157
