#Rx
# X(m), Y(m), Z(m), Distance(m), Power (dBm) Phase (deg)
1 682.67 591.196 139.377 119.852 -126.838 -118.039
2 684.012 575.38 139.578 116.184 -125.898 -145.225
3 689.091 515.525 137.847 119.597 -123.336 -46.5301
4 659.823 543.225 140.258 131.376 -120.167 -53.9727
5 754.281 669.967 137.455 145.51 -112.387 94.9327
6 755.545 654.622 137.882 134.677 -109.593 103.613
7 760.622 592.994 137.801 101.884 -129.371 0.178736
8 772.747 445.806 136.749 150.446 -117.247 82.2078
9 799.559 487.863 135.991 129.648 -111.877 20.8025
10 778.827 580.603 137.556 102.632 -121.247 -66.3924
