#Rx
# X(m), Y(m), Z(m), Distance(m), Power (dBm) Phase (deg)
1 698.139 408.887 86.6266 164.533 -250 0
2 728.54 541.582 85.4736 49.8877 -108.472 109.684
3 760.665 592.472 86.9188 56.925 -103.222 160.176
4 762.967 564.529 86.4457 47.3027 -95.7146 -5.04388
5 800.968 481.559 84.8774 104.73 -105.737 -93.1498
6 792.054 521.438 85.4948 73.8547 -122.18 139.477
7 785.328 551.522 86.1358 59.3347 -112.394 -24.5018
8 724.546 823.422 48.7876 264.368 -250 0
9 722.785 831.301 48.7476 272.363 -250 0
10 715.327 559.337 86.0581 53.2589 -111.615 -68.4819
