#Rx
# X(m), Y(m), Z(m), Distance(m), Power (dBm) Phase (deg)
1 685.124 614.652 106.776 104.025 -131.32 95.8656
2 661.433 543.187 108.229 108.404 -124.246 -175.158
3 755.384 656.571 105.808 115.84 -105.726 -175.126
4 773.183 440.522 104.661 137.387 -112.435 -104.773
5 773.419 437.649 104.72 139.965 -116.03 -153.06
6 803.983 468.071 103.629 124.687 -109.825 62.9753
7 782.437 564.455 105.136 72.5798 -113.627 110.83
8 779.167 579.084 105.339 73.5529 -103.091 -161.274
9 744.518 734.082 102.463 184.118 -111.127 -34.7993
10 733.072 586.862 105.822 69.9666 -104.113 169.644
