#Rx
# X(m), Y(m), Z(m), Distance(m), Power (dBm) Phase (deg)
1 682.548 592.633 139.346 120.274 -124.058 39.145
2 683.89 576.82 139.547 116.423 -137.228 -42.1566
3 688.976 516.878 137.826 119.138 -121.765 100.621
4 659.882 543.224 140.253 131.335 -122.291 -99.1003
5 754.189 671.083 137.422 146.33 -112.203 112.371
6 755.452 655.75 137.871 135.457 -113.399 100.668
7 760.524 594.182 137.816 102.274 -121.193 142.92
8 772.69 446.504 136.735 149.898 -113.889 -61.3334
9 799.832 486.644 135.973 130.429 -115.162 -84.8482
10 779.218 578.854 137.531 102.398 -120.239 -150.35
