#Rx
# X(m), Y(m), Z(m), Distance(m), Power (dBm) Phase (deg)
1 698.298 407.016 98.6058 169.778 -250 0
2 699.192 396.48 98.6182 179.099 -152.713 74.7148
3 661.467 635.988 99.8178 127.289 -143.953 -31.8754
4 676.124 542.835 100.326 92.295 -136.763 -70.7813
5 666.849 543.057 100.975 99.8428 -125.402 -38.3838
6 758.535 618.328 99.3019 82.3589 -107.017 151.567
7 816.433 412.381 95.3895 171.893 -118.161 -151.765
8 794.221 511.743 97.571 87.6599 -108.746 61.9742
9 803.28 695.768 94.7837 156.35 -250 0
10 727.861 578.78 98.7535 61.9959 -102.641 83.2993
