#Rx
# X(m), Y(m), Z(m), Distance(m), Power (dBm) Phase (deg)
1 675.169 679.598 187.119 200.57 -132.712 38.7419
2 699.201 396.371 187.508 223.574 -138.956 79.0444
3 842.896 472.357 183.13 191.938 -119.94 123.878
4 672.942 625.639 188.579 176.006 -136.601 -55.1303
5 833.477 539.073 183.894 167.558 -125.758 142.708
6 773.297 439.136 186.745 190.14 -120.141 167.968
7 793.029 517.076 186.584 157.504 -127.027 78.7176
8 751.533 702.699 186.51 202.795 -121.977 -4.81059
9 741.805 746.218 183.585 233.652 -121.275 48.7557
10 717.936 563.383 186.908 147.126 -143.839 17.5107
