#Rx
# X(m), Y(m), Z(m), Distance(m), Power (dBm) Phase (deg)
1 677.901 647.393 138.485 146.573 -122.313 -43.5371
2 691.356 488.823 138.266 131.22 -118.362 164.169
3 669.692 542.989 139.706 124.727 -130.963 -85.2421
4 772.989 442.88 136.669 152.672 -112.31 178.451
5 756.6 641.807 137.866 126.075 -118.233 159.859
6 758.716 616.129 138.217 111.667 -121.872 8.43544
7 767.915 504.462 136.5 111.339 -121.638 -129.336
8 780.816 660.922 136.645 142.324 -112.535 127.408
9 769.924 644.026 137.784 129.256 -122.895 -178.668
10 717.416 562.577 136.895 98.6386 -134.719 119.103
