#Rx
# X(m), Y(m), Z(m), Distance(m), Power (dBm) Phase (deg)
1 673.187 702.948 109.93 174.01 -140.85 45.7151
2 796.926 513.817 110.634 96.7748 -110.589 143.607
3 761.716 545.573 111.259 71.9699 -108.978 -177.837
4 728.233 575.771 111.912 73.3422 -105.09 -124.723
5 808.002 450.093 109.867 143.035 -114.111 22.0757
6 804.515 465.694 109.968 129.871 -109.451 -176.138
7 785.89 549.008 111.397 80.347 -109.777 92.5798
8 759.204 668.384 111.721 129.266 -108.33 158.075
9 757.692 625.053 112.351 96.1482 -106.498 -71.9121
10 715.728 559.959 111.247 75.0951 -104.62 -51.0663
