#Rx
# X(m), Y(m), Z(m), Distance(m), Power (dBm) Phase (deg)
1 679.313 630.758 138.524 136.638 -130.463 24.0484
2 685.474 558.151 139.104 113.994 -119.9 105.916
3 828.547 485.298 134.124 144.17 -118.311 -5.07177
4 754.405 540.964 136.688 96.4367 -132.589 -65.2987
5 670.867 542.961 139.584 123.919 -119.584 -58.2831
6 756.698 640.621 137.877 125.326 -117.991 -179.502
7 759.286 609.21 137.995 108.226 -134.799 -90.3144
8 768.466 497.774 136.368 114.82 -116.565 -108.07
9 725.533 819.005 99.664 266.022 -250 0
10 802.403 694.408 133.935 172.055 -115.813 17.6099
