#Rx
# X(m), Y(m), Z(m), Distance(m), Power (dBm) Phase (deg)
1 679.281 631.13 188.66 175.689 -128.926 129.557
2 690.443 499.581 188.237 167.241 -125.511 -17.8509
3 749.143 732.327 184.478 223.288 -116.358 -70.6153
4 750.531 715.479 186.013 211.621 -125.502 -144.129
5 765.561 533.035 186.586 147.864 -129.082 -9.84471
6 769.497 485.264 186.522 163.93 -124.754 -153.177
7 808.974 445.747 185.439 193.505 -123.021 -153.48
8 769.552 622.094 187.999 159.917 -133.085 2.63923
9 730.939 794.827 179.759 272.404 -118.502 -76.7218
10 715.731 559.963 186.927 147.542 -132.956 -82.2158
