#Rx
# X(m), Y(m), Z(m), Distance(m), Power (dBm) Phase (deg)
1 699.037 398.307 87.4061 174.254 -145.975 -126.359
2 734.735 569.907 87.3519 47.2718 -115.979 6.38433
3 709.434 592.727 88.5626 67.2882 -127.815 5.45133
4 820.457 539.384 84.7988 88.0684 -121.429 -45.2669
5 748.499 740.142 83.9706 184.865 -108.143 164.229
6 750.3 718.291 85.6403 164.115 -108.371 -165.187
7 815.192 417.933 84.4451 163.487 -120.204 -93.0953
8 751.777 701.607 86.6354 148.431 -107.149 -167.925
9 738.391 761.491 82.4095 205.541 -107.159 -1.28735
10 787.025 670.554 86.215 125.755 -145.687 -52.4717
