#Rx
# X(m), Y(m), Z(m), Distance(m), Power (dBm) Phase (deg)
1 774.899 533.684 86.8767 59.1176 -105.361 139.346
2 749.069 556.98 87.2724 44.9555 -110.296 116.233
3 736.809 568.037 87.3202 46.4306 -120.217 123.809
4 663.117 634.5 88.6239 120.603 -128.456 148.417
5 728.938 541.572 86.3553 50.5164 -109.176 151.974
6 767.369 511.089 86.3526 69.0645 -105.084 23.9903
7 772.938 443.499 86.6561 127.459 -107.281 110.819
8 758.202 672.87 87.3378 122.052 -106.316 -137.673
9 795.637 505.406 86.363 85.8272 -103.358 29.2649
10 715.231 559.188 87.0764 54.151 -117.622 -13.5371
