#Rx
# X(m), Y(m), Z(m), Distance(m), Power (dBm) Phase (deg)
1 678.266 643.091 134.601 141.316 -120.232 -129.712
2 691.675 485.064 134.395 130.411 -120.47 161.257
3 667.556 543.04 135.926 123.147 -123.21 38.582
4 773.112 441.386 132.769 151.488 -111.803 -110.444
5 756.861 638.641 133.966 121.096 -116.995 59.3005
6 759.03 612.32 134.242 106.392 -128.112 -39.2676
7 768.271 500.145 132.575 110.399 -121.262 -19.2699
8 778.377 657.139 132.938 136.598 -117.645 -133.539
9 767.691 640.562 133.935 123.761 -117.489 -144.125
10 716.781 561.592 132.977 95.0686 -131.731 -32.402
