#Rx
# X(m), Y(m), Z(m), Distance(m), Power (dBm) Phase (deg)
1 681.539 604.522 88.9501 91.0653 -124.858 -107.392
2 684.086 574.501 89.5886 79.1119 -119.95 -59.5844
3 685.962 552.396 88.8838 76.2343 -121.739 -130.854
4 827.427 486.308 84.0614 117.415 -114.585 165.882
5 801.757 509.46 85.9792 86.899 -115.007 -179.578
6 790.749 519.389 86.7016 74.856 -111.536 -55.9003
7 739.443 565.661 87.3798 45.685 -116.714 55.4758
8 664.256 633.473 88.635 119.192 -130.867 -3.68478
9 797.391 497.564 86.2416 91.9269 -104.94 -12.9237
10 722.448 832.806 49.804 273.917 -250 0
