#Rx
# X(m), Y(m), Z(m), Distance(m), Power (dBm) Phase (deg)
1 682.792 589.759 90.264 84.6171 -129.471 78.6817
2 684.134 573.942 90.4228 79.4741 -124.096 -153.394
3 689.205 514.173 88.7239 86.3725 -118.936 -148.307
4 659.794 543.226 91.1152 100.37 -132.153 104.808
5 754.373 668.851 88.3425 118.398 -109.264 -154.804
6 755.637 653.497 88.7485 104.744 -104.075 -20.4083
7 760.719 591.809 88.6429 57.9265 -104.941 -16.7338
8 772.803 445.134 87.6183 126.278 -112.287 -75.0135
9 799.287 489.079 86.8658 99.174 -111.091 34.7763
10 778.436 582.355 88.4356 60.4959 -104.542 -164.279
