#Rx
# X(m), Y(m), Z(m), Distance(m), Power (dBm) Phase (deg)
1 677.295 654.533 102.076 131.161 -124.993 -59.6189
2 698.996 398.784 101.354 177.935 -151.835 -144.649
3 745.402 541.179 100.519 60.9757 -101.261 -176.212
4 728.616 541.58 100.299 63.0833 -103.388 -172.142
5 767.888 504.796 100.168 82.7615 -101.197 -54.3814
6 770.627 471.541 100.346 108.512 -110.825 178.244
7 773.402 437.855 100.58 137.988 -111.962 121.113
8 759.255 668.156 101.115 123.719 -113.824 44.8703
9 724.956 821.588 63.6122 263.279 -250 0
10 801.061 692.325 97.9592 153.671 -133.93 15.8819
