#Rx
# X(m), Y(m), Z(m), Distance(m), Power (dBm) Phase (deg)
1 686.094 550.843 138.684 113.664 -127.648 -171.949
2 745.043 560.611 137.194 94.6773 -132.832 160.43
3 694.488 606.206 139.054 118.771 -135.18 42.0243
4 663.93 633.766 138.492 146.242 -119.38 0.361549
5 814.81 419.639 134.627 181.436 -116.715 -72.2474
6 775.152 597.045 137.784 106.286 -116.869 95.6361
7 771.708 612.45 137.858 111.806 -127.08 38.1533
8 754.46 689.609 136.912 160.559 -112.724 -118.689
9 729.151 802.825 99.764 250.049 -250 0
