#Rx
# X(m), Y(m), Z(m), Distance(m), Power (dBm) Phase (deg)
1 699.062 398.004 187.406 222.344 -136.269 74.8012
2 733.824 570.729 187.366 145.749 -139.786 -22.0344
3 708.604 593.475 188.644 154.5 -133.341 -146.826
4 819.001 539.419 184.9 161.319 -121.625 -157.671
5 748.621 738.662 184.093 227.967 -115.316 93.6009
6 750.419 716.847 185.76 212.455 -121.973 -118.483
7 814.873 419.358 184.513 211.388 -117.921 159.742
8 751.489 702.896 186.606 203 -116.472 -112.171
9 738.105 762.767 182.311 246.409 -118.037 34.7605
10 786.359 669.52 186.276 185.171 -123.74 50.8791
