#Rx
# X(m), Y(m), Z(m), Distance(m), Power (dBm) Phase (deg)
1 681.732 602.247 107.003 100.363 -123.18 127.589
2 684.315 571.803 107.49 90.3599 -141.574 139.42
3 686.18 549.83 106.79 88.3858 -120.561 -62.2015
4 825.745 487.825 102.182 122.994 -118.799 137.331
5 799.73 511.288 104.124 95.1545 -121.033 -33.3091
6 788.738 521.202 104.753 84.8778 -108.211 26.808
7 737.354 567.545 105.416 63.9305 -104.323 -55.4781
8 663.494 634.16 106.632 128.128 -126.512 -165.074
9 796.764 500.367 104.289 99.7401 -108.674 -80.9084
10 722.404 833.003 67.808 275.185 -250 0
