#Rx
# X(m), Y(m), Z(m), Distance(m), Power (dBm) Phase (deg)
1 699.009 398.639 87.4057 173.954 -141.158 -136.442
2 735.645 569.087 87.338 46.8842 -121.657 -26.7358
3 710.263 591.979 88.481 66.4219 -140.975 -168.138
4 821.913 539.349 84.6976 89.2628 -117.131 -114.175
5 750.181 719.736 85.5206 165.474 -122.43 -96.1869
6 815.509 416.512 84.3771 164.84 -126.427 129.931
7 752.066 700.316 86.6651 147.22 -106.003 -15.1647
8 738.677 760.21 82.508 204.295 -109.123 155.589
9 787.689 671.584 86.1541 126.857 -132.167 -178.839
