#Rx
# X(m), Y(m), Z(m), Distance(m), Power (dBm) Phase (deg)
1 677.901 647.393 105.315 127.349 -122.635 -175.347
2 691.356 488.823 105.096 109.396 -118.678 171.91
3 669.692 542.989 106.536 101.044 -114.096 -102.194
4 772.989 442.88 103.499 134.772 -113.28 85.8128
5 756.6 641.807 104.695 103.296 -112.791 -67.3634
6 758.716 616.129 105.047 84.9784 -105.283 34.3666
7 767.915 504.462 103.33 85.2184 -106.942 8.65642
8 780.816 660.922 103.474 122.932 -114.386 -137.989
9 769.924 644.026 104.613 107.182 -111.058 -44.8716
10 717.416 562.577 103.724 67.596 -107.617 40.6702
