#Rx
# X(m), Y(m), Z(m), Distance(m), Power (dBm) Phase (deg)
1 699.009 398.639 137.406 192.998 -131.419 8.80455
2 735.645 569.087 137.338 95.8101 -123.535 -95.958
3 710.263 591.979 138.481 107.274 -122.682 161.666
4 821.913 539.349 134.698 121.183 -112.196 -36.0484
5 750.181 719.736 135.521 184.882 -118.422 29.5348
6 815.509 416.512 134.377 184.004 -112.571 -28.9663
7 752.066 700.316 136.665 169.08 -109.78 -101.968
8 738.677 760.21 132.508 219.625 -109.836 160.328
9 787.689 671.584 136.154 151.511 -112.125 -11.3133
