#Rx
# X(m), Y(m), Z(m), Distance(m), Power (dBm) Phase (deg)
1 678.266 643.091 138.531 143.908 -125.686 -19.6797
2 691.675 485.064 138.325 133.209 -118.14 161.779
3 667.556 543.04 139.856 126.154 -126.452 179.649
4 773.112 441.386 136.699 153.861 -110.91 165.208
5 756.861 638.641 137.896 124.09 -114.51 -87.2105
6 759.03 612.32 138.172 109.799 -123.865 -19.1223
7 768.271 500.145 136.505 113.627 -122.693 -172.045
8 778.377 657.139 136.868 139.23 -113.455 -123.858
9 767.691 640.562 137.865 126.692 -116.391 -33.3447
10 716.781 561.592 136.907 98.8153 -124.72 -73.1792
