#Rx
# X(m), Y(m), Z(m), Distance(m), Power (dBm) Phase (deg)
1 680.511 616.635 104.274 106.346 -137.684 46.095
2 695.163 443.958 104.655 141.104 -135.579 175.1
3 802.132 539.822 101.698 84.0215 -116.627 152.205
4 764.231 549.181 102.676 63.7786 -106.252 108.812
5 748.891 735.388 99.9498 184.572 -117.481 64.5509
6 755.825 651.222 103.5 110.164 -104.525 -78.8175
7 826.68 366.543 97.2355 216.629 -127.04 149.59
8 789.627 532.294 102.431 79.1191 -108.17 12.9711
9 787.576 671.408 101.61 132.783 -125.714 -2.46398
10 746.12 607.102 103.74 77.24 -110.298 73.4536
