#Rx
# X(m), Y(m), Z(m), Distance(m), Power (dBm) Phase (deg)
1 688.052 527.77 108.536 93.5651 -110.83 80.019
2 698.961 399.205 108.178 179.939 -148.99 113.594
3 784.158 525.333 107.328 82.8101 -112.168 97.5614
4 749.612 726.64 105.682 178.244 -122.84 -68.6488
5 758.589 617.668 108.869 88.8017 -109.55 -138.269
6 772.064 454.101 107.073 126.73 -110.57 88.9762
7 817.004 409.827 104.791 177.399 -117.817 75.9772
8 752.499 698.381 107.243 152.905 -112.97 -87.4655
9 722.559 832.31 70.2972 274.724 -250 0
