#Rx
# X(m), Y(m), Z(m), Distance(m), Power (dBm) Phase (deg)
1 688.372 523.991 140.978 119.628 -126.48 14.056
2 699.059 398.042 140.711 195.127 -134.883 -5.24892
3 845.106 470.363 136.141 163.159 -116.576 -48.0448
4 781.16 528.037 139.905 108.356 -121.294 -61.0972
5 749.976 722.222 138.579 188.569 -110.748 -55.1005
6 758.883 614.096 141.357 113.404 -121.374 95.069
7 772.287 451.393 139.659 148.06 -115.667 -30.1034
8 816.119 413.787 137.511 187.93 -109.792 -61.5695
9 751.546 702.642 139.676 172.674 -116.145 121.489
10 722.521 832.48 102.828 280.06 -250 0
