#Rx
# X(m), Y(m), Z(m), Distance(m), Power (dBm) Phase (deg)
1 686.832 542.147 138.352 114.03 -120.276 -116.392
2 699.179 396.626 137.408 194.644 -138.579 96.4279
3 743.963 561.584 137.351 94.8621 -131.456 -24.3872
4 668.716 629.45 138.678 141.57 -127.124 126.974
5 751.874 699.175 136.61 168.097 -110.56 -174.449
6 761.851 578.073 137.764 98.2271 -124.179 -89.8021
7 820.542 394 133.441 203.417 -116.411 121.262
8 794.608 510.009 136.334 116.886 -111.311 28.7186
9 780.822 571.681 137.392 101.73 -121.407 110.556
10 733.25 784.488 130.754 241.541 -116.169 -104.68
