#Rx
# X(m), Y(m), Z(m), Distance(m), Power (dBm) Phase (deg)
1 698.139 408.887 87.643 164.808 -250 0
2 728.54 541.582 86.4901 50.7654 -107.521 -157.677
3 760.665 592.472 87.9353 57.7212 -105.518 0.350352
4 762.967 564.529 87.4621 48.2479 -119.001 129.902
5 800.968 481.559 85.8938 105.145 -110.074 -94.6556
6 792.054 521.438 86.5112 74.4506 -122.416 -55.7466
7 785.328 551.522 87.1522 60.0858 -122.876 -114.269
8 724.546 823.422 49.804 264.394 -250 0
9 722.785 831.301 49.764 272.388 -250 0
10 715.327 559.337 87.0745 54.0929 -116.288 -62.061
