#Rx
# X(m), Y(m), Z(m), Distance(m), Power (dBm) Phase (deg)
1 688.088 527.34 86.1776 79.5372 -116.109 -42.9066
2 748.87 735.641 82.5947 180.177 -133.735 161.064
3 750.22 719.261 83.8113 164.58 -112.516 -178.313
4 824.076 378.191 80.6817 201.511 -150.518 20.5415
5 815.362 417.17 82.8 163.81 -129.098 104.478
6 753.032 695.993 85.0562 142.663 -110.083 153.848
7 747.601 720.288 83.9315 165.558 -115.899 -136.285
8 736.355 770.597 79.9601 214.116 -115.531 140.298
9 767.205 639.809 86.1317 93.385 -111.312 -4.91293
