#Rx
# X(m), Y(m), Z(m), Distance(m), Power (dBm) Phase (deg)
1 682.369 594.741 189.161 163.58 -131.094 -97.4349
2 687.671 532.253 187.974 159.148 -122.535 16.8123
3 725.639 578.111 187.631 147.644 -154.001 99.1569
4 753.042 684.999 187.12 191.266 -124.836 -39.5488
5 755.164 659.242 187.838 176.208 -125.241 -174.344
6 769.01 624.518 187.98 160.778 -125.282 -148.546
7 751.317 703.669 186.488 203.457 -118.85 91.5337
8 724.548 823.415 149.764 285.216 -250 0
9 782.16 663.007 186.521 180.702 -120.246 -80.1934
