#Rx
# X(m), Y(m), Z(m), Distance(m), Power (dBm) Phase (deg)
1 673.418 700.234 134.787 182.883 -129.845 -12.6896
2 795.096 515.468 135.458 114.15 -117.343 -64.3959
3 759.815 547.288 135.985 95.3286 -129.716 -141.801
4 726.016 577.771 136.643 97.8448 -127.178 40.9171
5 807.416 452.714 134.605 154.147 -114.942 159.41
6 803.929 468.315 134.706 142.336 -113.933 -50.9637
7 785.329 551.518 136.13 101.886 -121.779 43.5521
8 758.668 670.784 136.363 145.738 -113.727 -92.3771
9 756.151 622.662 137.096 113.901 -119.593 -127.48
10 715.617 559.786 135.946 98.2396 -126.736 -24.7819
