#Rx
# X(m), Y(m), Z(m), Distance(m), Power (dBm) Phase (deg)
1 677.614 650.777 96.3686 125.764 -139.497 -37.7578
2 699.088 397.705 95.607 177.082 -147.458 -159.288
3 740.663 541.292 94.7088 55.6935 -103.936 -17.0226
4 724.148 541.687 94.4928 59.2763 -104.254 -96.2021
5 768.164 501.448 94.4238 81.3213 -114.498 86.4056
6 770.956 467.554 94.6025 109.001 -115.569 -140.39
7 773.424 437.59 94.837 135.915 -112.113 145.909
8 758.438 671.81 95.2824 124.257 -109.7 118.731
9 724.466 823.781 57.8642 265.103 -250 0
10 799.087 689.264 92.5289 148.419 -250 0
