#Rx
# X(m), Y(m), Z(m), Distance(m), Power (dBm) Phase (deg)
1 697.345 418.248 138.264 177.84 -136.925 -75.2265
2 698.698 402.3 137.401 190.023 -133.263 -155.524
3 821.438 491.71 134.616 137.243 -115.091 -179.887
4 660.302 637.039 138.589 150.026 -121.797 92.6569
5 742.892 541.239 136.538 95.9183 -127.513 6.19365
6 659.97 543.222 140.247 131.273 -145.498 147.742
7 757.095 635.803 137.924 122.353 -121.377 -131.92
8 773.321 438.839 136.751 155.902 -115.232 -52.2047
9 807.844 450.804 135.558 156.217 -124.411 -16.5011
10 722.585 832.195 99.664 279.112 -250 0
