#Rx
# X(m), Y(m), Z(m), Distance(m), Power (dBm) Phase (deg)
1 698.278 407.25 187.536 215.959 -134.98 98.4087
2 725.809 541.647 186.454 146.494 -130.195 103.92
3 760.894 589.691 187.902 149.125 -133.717 -17.9778
4 763.235 561.269 187.423 145.927 -137.519 -13.8232
5 800.425 483.989 185.931 171.189 -123.897 176.892
6 791.431 524.222 186.554 155.206 -124.426 83.8078
7 784.745 554.133 187.188 149.878 -131.158 -70.6574
8 724.237 824.805 149.804 286.538 -250 0
9 722.658 831.868 149.764 293.185 -250 0
10 715.247 559.213 187.076 147.79 -135.091 -8.24549
