#Rx
# X(m), Y(m), Z(m), Distance(m), Power (dBm) Phase (deg)
1 675.169 679.598 137.119 168.134 -140.933 7.75373
2 699.201 396.371 137.508 194.902 -145.579 168.29
3 842.896 472.357 133.13 158.996 -120.776 74.6289
4 672.942 625.639 138.579 137.378 -130.154 80.9533
5 833.477 539.073 133.894 128.214 -130.385 -176.082
6 773.297 439.136 136.745 155.663 -115.788 -68.5092
7 793.029 517.076 136.584 113.585 -120.434 -26.1969
8 751.533 702.699 136.51 170.959 -125.041 158.243
9 741.805 746.218 133.585 207.333 -123.347 40.1518
10 717.936 563.383 136.908 98.5267 -152.948 -62.8706
