#Rx
# X(m), Y(m), Z(m), Distance(m), Power (dBm) Phase (deg)
1 679.577 627.639 138.698 135.043 -123.592 13.5241
2 690.808 495.279 138.305 128.097 -125.281 174.381
3 749.449 728.62 134.785 192.241 -110.505 -148.143
4 750.839 711.744 136.322 178.46 -123.686 -63.2081
5 765.822 529.87 136.488 100.648 -131.255 -74.3226
6 769.811 481.45 136.526 124.794 -120.456 -100.458
7 808.139 449.48 135.497 157.226 -116.095 -121.629
8 768.716 625.833 137.97 118.153 -117.246 179.518
9 730.079 798.671 99.764 245.955 -250 0
10 715.586 559.737 136.93 99.1847 -123.305 -44.5746
