#Rx
# X(m), Y(m), Z(m), Distance(m), Power (dBm) Phase (deg)
1 679.479 628.801 188.685 174.705 -137.352 149.753
2 690.687 496.714 188.282 168.257 -120.875 -173.698
3 749.347 729.853 184.683 221.518 -119.869 54.7524
4 750.737 712.987 186.22 209.943 -121.389 -20.615
5 765.735 530.924 186.521 148.223 -132.783 121.056
6 769.706 482.722 186.525 165.137 -131.397 63.3404
7 808.418 448.235 185.478 191.894 -123.772 61.4989
8 768.995 624.586 187.98 160.803 -126.157 -83.3192
9 730.365 797.391 149.764 260.959 -118.65 85.2755
10 715.618 559.788 186.929 147.567 -131.547 143.19
