#Rx
# X(m), Y(m), Z(m), Distance(m), Power (dBm) Phase (deg)
1 689.02 516.359 138.695 120.001 -120.124 42.9784
2 788.482 521.433 137.406 110.882 -123.102 59.6171
3 669.71 628.554 139.309 141.022 -130.392 86.94
4 740.527 541.295 137.268 96.7282 -133.175 -150.926
5 763.018 563.911 138.216 97.2725 -126.867 -19.1501
6 765.479 534.03 137.379 100.257 -121.577 141.836
7 824.825 374.839 133.078 220.677 -114.923 -46.0639
8 786.321 547.082 137.712 104.18 -122.372 -122.268
9 773.127 606.103 138.531 109.903 -119.452 -42.5755
10 785.978 668.929 136.932 149.589 -115.782 -63.8217
