#Rx
# X(m), Y(m), Z(m), Distance(m), Power (dBm) Phase (deg)
1 677.614 650.777 88.3084 122.529 -149.181 58.4847
2 699.088 397.705 87.5468 174.835 -138.157 11.1341
3 740.663 541.292 86.6486 48.2233 -128.203 -82.36
4 724.148 541.687 86.4326 52.3534 -107.316 -56.0943
5 768.164 501.448 86.3636 76.4295 -105.848 -119.782
6 770.956 467.554 86.5423 105.388 -109.564 -49.1897
7 773.424 437.59 86.7768 133.021 -108.14 -86.7393
8 758.438 671.81 87.2222 121.055 -111.643 161.784
9 724.466 823.781 49.804 264.759 -250 0
10 799.087 689.264 84.4687 145.9 -250 0
