#Rx
# X(m), Y(m), Z(m), Distance(m), Power (dBm) Phase (deg)
1 679.451 629.127 138.542 135.745 -137.475 -12.6933
2 685.577 556.931 139.057 113.926 -126.034 -73.0123
3 827.583 486.167 134.191 143.213 -116.875 87.0154
4 753.105 540.995 136.671 96.3093 -137.678 30.6377
5 669.978 542.982 139.646 124.507 -127.096 86.4244
6 756.81 639.268 137.89 124.479 -115.898 -42.1222
7 759.406 607.755 137.977 107.572 -117.358 -55.0056
8 768.582 496.366 136.369 115.612 -111.738 -3.69938
9 725.346 819.843 99.664 266.852 -250 0
10 801.613 693.182 134.062 170.908 -114.739 -122.221
