#Rx
# X(m), Y(m), Z(m), Distance(m), Power (dBm) Phase (deg)
1 679.577 627.639 138.565 134.948 -128.155 -143.002
2 690.808 495.279 138.172 127.998 -121.613 -126.313
3 749.449 728.62 134.652 192.178 -110.611 102.281
4 750.839 711.744 136.19 178.39 -116.692 -90.2668
5 765.822 529.87 136.355 100.524 -120.442 -82.9527
6 769.811 481.45 136.394 124.695 -117.87 -99.1383
7 808.139 449.48 135.365 157.148 -115.563 -172.298
8 768.716 625.833 137.837 118.045 -119.972 -43.8875
9 730.079 798.671 99.6315 245.924 -250 0
10 715.586 559.737 136.797 99.0586 -119.298 94.7661
