#Rx
# X(m), Y(m), Z(m), Distance(m), Power (dBm) Phase (deg)
1 673.509 699.153 103.507 168.337 -131.917 136.631
2 687.68 532.15 105.644 90.3384 -115.284 160.647
3 696.57 427.372 106.481 155.319 -250 0
4 699.085 397.735 105.081 180.123 -155.386 -111.397
5 659.259 543.239 108.085 110.015 -115.281 26.3381
6 752.524 691.29 104.652 145.394 -109.344 -137.62
7 817.205 408.925 101.788 177.218 -113.477 147.582
8 803.269 471.267 103.408 121.903 -109.055 -128.608
9 776.246 592.151 105.25 76.7011 -105.595 67.0029
10 756.875 678.804 104.735 134.547 -110.355 58.6746
