#Rx
# X(m), Y(m), Z(m), Distance(m), Power (dBm) Phase (deg)
1 685.864 553.555 103.819 86.1106 -129.612 27.3228
2 747.118 558.739 102.193 59.6932 -103.167 15.6807
3 696.317 604.556 104.12 90.8173 -128.016 2.58918
4 664.686 633.085 103.53 125.2 -139.98 -89.2548
5 815.462 416.725 99.518 169.118 -121.923 -20.9667
6 775.738 594.424 102.778 75.498 -105.003 20.5378
7 772.294 609.829 102.852 82.5459 -107.108 -12.3375
8 755.021 687.099 102.001 140.617 -118.27 46.1106
9 729.689 800.418 64.7947 241.998 -250 0
