#Rx
# X(m), Y(m), Z(m), Distance(m), Power (dBm) Phase (deg)
1 682.369 594.741 96.7905 90.5581 -128.369 -54.591
2 687.671 532.253 95.6035 83.6041 -108.663 -118.345
3 725.639 578.111 95.2607 59.3615 -107.253 -123.596
4 753.042 684.999 94.7494 135.654 -121.326 -128.12
5 755.164 659.242 95.467 112.854 -115.362 -68.766
6 769.01 624.518 95.6096 86.661 -115.37 67.273
7 751.317 703.669 94.1173 152.744 -122.8 49.0089
8 724.548 823.415 57.3935 264.705 -250 0
9 782.16 663.007 94.1507 120.762 -122.425 -135.272
