#Rx
# X(m), Y(m), Z(m), Distance(m), Power (dBm) Phase (deg)
1 680.617 615.383 188.716 169.453 -127.298 -39.3938
2 695.267 442.734 189.089 194.439 -127.037 -111.235
3 800.766 539.855 186.208 155.081 -126.012 46.3329
4 764.322 548.083 187.056 146.176 -138.107 46.0727
5 748.996 734.114 184.47 224.663 -118.734 -42.5821
6 755.943 649.784 187.929 171.18 -117.518 48.3965
7 826.401 367.791 181.744 250.581 -117.535 -31.8857
8 789.34 533.575 186.863 153.005 -139.958 -111.466
9 786.78 670.174 186.097 185.512 -120.59 -23.2261
10 745.354 605.913 188.152 152.696 -130.737 -83.92
