#Rx
# X(m), Y(m), Z(m), Distance(m), Power (dBm) Phase (deg)
1 699.169 396.746 137.408 194.546 -138.85 60.6225
2 748.779 557.241 137.137 94.6943 -122.583 -74.525
3 759.162 540.85 136.751 97.05 -118.85 52.0602
4 759.253 609.608 138.14 108.531 -119.877 -141.066
5 749.935 709.849 136.445 176.894 -112.083 74.2658
6 810.983 436.758 135.34 167.411 -111.329 -115.757
7 780.447 573.357 137.415 101.83 -125.212 16.2165
8 719.391 565.641 137.001 98.3153 -125.756 -35.6985
9 716.83 561.667 137.006 98.8969 -123.533 -168.677
10 715.585 559.737 136.93 99.1848 -124.364 -57.0948
