#Rx
# X(m), Y(m), Z(m), Distance(m), Power (dBm) Phase (deg)
1 679.451 629.127 188.542 174.725 -133.558 147.531
2 685.577 556.931 189.057 158.532 -125.805 130.018
3 827.583 486.167 184.191 179.379 -121.4 -37.4882
4 753.105 540.995 186.671 145.569 -130.255 -176.717
5 669.978 542.982 189.646 166.476 -123.579 14.3995
6 756.81 639.268 187.89 165.927 -126.832 -7.11311
7 759.406 607.755 187.977 153.678 -130.265 47.0154
8 768.582 496.366 186.369 158.905 -126.835 -115.786
9 725.346 819.843 149.664 281.823 -250 0
10 801.613 693.182 184.062 202.147 -118.715 -150.567
