#Rx
# X(m), Y(m), Z(m), Distance(m), Power (dBm) Phase (deg)
1 699.009 398.639 112.774 182.155 -148.022 16.3453
2 735.645 569.087 112.706 71.522 -105.744 31.4371
3 710.263 591.979 113.849 85.9484 -120.176 -164.649
4 821.913 539.349 110.066 103.688 -126.03 11.837
5 750.181 719.736 110.889 173.801 -127.704 -138.152
6 815.509 416.512 109.745 173.029 -114.968 16.264
7 752.066 700.316 112.033 156.707 -125.206 -128.551
8 738.677 760.21 107.876 210.734 -113.738 111.979
9 787.689 671.584 111.522 137.658 -113.246 139.872
