#Rx
# X(m), Y(m), Z(m), Distance(m), Power (dBm) Phase (deg)
1 683.058 586.615 93.0455 84.9851 -127.264 123.122
2 696.126 432.612 92.7168 145.72 -250 0
3 697.796 412.929 91.3575 162.291 -250 0
4 776.509 540.435 90.5467 60.1647 -106.516 -61.6892
5 761.948 576.901 91.2789 54.0097 -102.217 1.30526
6 762.974 564.438 91.0303 51.5823 -101.344 -18.2625
7 764.178 549.826 90.8196 52.5972 -99.7476 -71.8886
8 736.152 771.504 85.3082 216.013 -112.996 -171.865
9 722.936 830.624 53.2333 271.816 -250 0
10 715.569 559.712 90.4992 56.8134 -111.149 105.919
