#Rx
# X(m), Y(m), Z(m), Distance(m), Power (dBm) Phase (deg)
1 684.765 566.502 92.4425 79.2711 -123.137 137.06
2 688.142 526.709 90.8217 82.393 -111.156 29.2539
3 692.07 480.413 91.4574 107.875 -124.42 -26.0367
4 742.918 562.527 90.4262 48.0681 -104.906 -125.124
5 721.782 541.744 89.4212 55.8497 -101.61 -102.104
6 673.784 542.891 92.3394 89.3839 -116.212 167.888
7 763.24 561.214 90.4822 50.9776 -102.474 45.0568
8 772.791 445.274 89.8194 126.951 -110.481 -22.2642
9 773.242 439.797 89.7913 132.004 -111.58 148.724
10 749.02 713.943 89.128 160.871 -113.084 -24.8664
