#Rx
# X(m), Y(m), Z(m), Distance(m), Power (dBm) Phase (deg)
1 686.094 550.843 139.295 114.181 -124.181 16.6707
2 745.043 560.611 137.805 95.2878 -130.141 -33.7185
3 694.488 606.206 139.664 119.268 -123.797 31.2857
4 663.93 633.766 139.102 146.644 -118.587 61.3846
5 814.81 419.639 135.237 181.747 -110.305 -106.859
6 775.152 597.045 138.394 106.833 -126.769 -134.249
7 771.708 612.45 138.468 112.327 -123.448 -75.139
8 754.46 689.609 137.523 160.919 -109.733 -145.432
9 729.151 802.825 100.375 250.189 -250 0
