#Rx
# X(m), Y(m), Z(m), Distance(m), Power (dBm) Phase (deg)
1 697.236 419.529 188.354 208.27 -137.064 57.4735
2 698.649 402.881 187.401 218.902 -134.563 19.0449
3 822.447 490.8 184.546 175.509 -120.369 -150.499
4 660.346 636.999 188.594 186.016 -128.859 61.5751
5 744.262 541.206 186.556 145.263 -133.056 19.0284
6 660.088 543.219 190.239 171.704 -126.566 41.0447
7 756.997 636.989 187.912 164.882 -125.841 65.3855
8 773.298 439.121 186.746 190.15 -125.092 -161.045
9 808.139 449.481 185.537 191.124 -122.916 93.0899
10 722.617 832.053 149.664 293.323 -250 0
