#Rx
# X(m), Y(m), Z(m), Distance(m), Power (dBm) Phase (deg)
1 679.38 629.965 138.673 136.301 -123.734 31.963
2 690.565 498.148 138.26 126.744 -121.149 -52.3759
3 749.245 731.09 134.58 194.311 -109.513 107.881
4 750.634 714.232 136.116 180.467 -110.621 -50.8773
5 765.648 531.977 136.553 100.065 -153.526 -150.555
6 769.602 483.992 136.524 123.168 -120.857 -138.766
7 808.695 446.994 135.459 159.179 -111.058 -65.8084
8 769.274 623.34 137.989 116.907 -118.167 -46.4346
9 730.652 796.108 129.641 252.135 -116.737 -84.4919
10 715.666 559.863 136.928 99.1583 -138.142 45.5569
