#Rx
# X(m), Y(m), Z(m), Distance(m), Power (dBm) Phase (deg)
1 675.169 679.598 99.6247 150.271 -138.738 -142.017
2 699.201 396.371 100.014 179.638 -145.949 -3.83091
3 842.896 472.357 95.636 141.035 -118.795 -82.447
4 672.942 625.639 101.085 114.348 -137.099 98.2373
5 833.477 539.073 96.3997 104.847 -123.148 115.336
6 773.297 439.136 99.2512 136.276 -111.39 -10.4747
7 793.029 517.076 99.0897 85.1701 -105.955 -103.974
8 751.533 702.699 99.0162 153.574 -109.558 -7.28229
9 741.805 746.218 96.0907 193.815 -111.3 -138.487
10 717.936 563.383 99.4142 63.5263 -103.572 -69.6477
