#Rx
# X(m), Y(m), Z(m), Distance(m), Power (dBm) Phase (deg)
1 694.248 454.747 104.194 132.513 -140.347 -147.507
2 696.635 426.61 104.287 155.063 -250 0
3 724.429 579.202 103.043 67.0571 -106.744 8.09352
4 750.336 717.845 101.071 168.409 -111.208 -16.9364
5 757.348 632.734 103.347 95.4907 -107.534 176.855
6 768.751 494.317 101.765 91.3312 -106.962 60.9087
7 771.926 455.776 101.809 122.677 -111.835 -97.1817
8 773.427 437.561 102.171 138.93 -114.19 -66.8576
9 803.463 470.398 101.215 121.553 -112.562 -121.169
10 721.41 568.772 102.664 65.563 -104.1 30.2649
