#Rx
# X(m), Y(m), Z(m), Distance(m), Power (dBm) Phase (deg)
1 698.298 407.016 187.396 216.027 -136.652 -149.933
2 699.192 396.48 187.408 223.431 -132.355 -58.4004
3 661.467 635.988 188.608 185.096 -132.696 141.53
4 676.124 542.835 189.116 163.299 -127.327 -23.1546
5 666.849 543.057 189.766 168.024 -124.311 13.5836
6 758.535 618.328 188.092 157.319 -131.123 80.8909
7 816.433 412.381 184.18 216.376 -118.348 -101.998
8 794.221 511.743 186.361 159.196 -126.069 147.735
9 803.28 695.768 183.574 203.984 -119.946 -62.9442
10 727.861 578.78 187.544 147.352 -133.939 36.9391
