#Rx
# X(m), Y(m), Z(m), Distance(m), Power (dBm) Phase (deg)
1 677.029 657.669 138.234 153.156 -126.007 -96.5455
2 682.525 592.907 139.201 120.243 -128.563 -148.682
3 671.47 542.947 139.542 123.524 -120.328 -141.003
4 751.444 704.396 136.459 172.348 -120.812 175.832
5 754.203 670.91 137.427 146.202 -121.206 -138.443
6 761.277 585.038 137.847 99.7336 -133.274 63.3829
7 762.816 566.359 137.484 96.6473 -126.402 8.86037
8 723.347 828.788 99.764 275.748 -250 0
9 720.098 566.737 137.187 98.3738 -124.935 40.9731
