#Rx
# X(m), Y(m), Z(m), Distance(m), Power (dBm) Phase (deg)
1 687.175 538.1 108.213 90.8573 -122.793 -43.4481
2 699.194 396.45 107.424 182.075 -163.35 160.547
3 740.567 564.648 107.418 65.2871 -105.731 87.9521
4 667.057 630.946 108.678 125.067 -128.293 -11.508
5 752.292 694.099 106.772 148.829 -125.012 17.8007
6 762.245 573.286 107.722 68.4927 -108.171 -135.476
7 819.706 397.741 103.635 188.402 -117.879 146.063
8 793.721 513.977 106.411 92.0709 -120.147 -111.027
9 780.035 575.202 107.456 74.8713 -106.064 -159.367
10 732.395 788.312 100.416 235.93 -117.78 15.9688
