#Rx
# X(m), Y(m), Z(m), Distance(m), Power (dBm) Phase (deg)
1 684.645 567.917 139.437 114.975 -134.698 -55.3054
2 688.033 527.983 137.811 116.038 -117.566 -177.421
3 691.977 481.507 138.381 135.16 -121.211 -115.951
4 743.924 561.62 137.351 94.8642 -144.508 137.453
5 723.128 541.711 136.379 98.3183 -129.385 117.264
6 674.672 542.87 139.218 121.37 -120.599 -124.964
7 763.125 562.604 137.439 96.4833 -133.113 176.41
8 772.735 445.959 136.746 150.326 -114.24 67.803
9 773.212 440.163 136.724 154.839 -113.734 -119.163
10 749.338 712.522 136.178 179.012 -117.364 170.737
