#Rx
# X(m), Y(m), Z(m), Distance(m), Power (dBm) Phase (deg)
1 682.548 592.633 83.5963 82.3291 -130.732 41.7659
2 683.89 576.82 83.7972 76.447 -126.053 -28.0845
3 688.976 516.878 82.0757 81.7044 -111.663 110.552
4 659.882 543.224 84.5032 97.2628 -123.776 119.593
5 754.189 671.083 81.6722 118.064 -110.365 95.1725
6 755.452 655.75 82.1211 104.045 -106.57 -40.0876
7 760.524 594.182 82.0654 54.2483 -108.496 99.1437
8 772.69 446.504 80.9846 122.772 -109.897 -157.626
9 799.832 486.644 80.2224 98.4891 -111.807 40.154
10 779.218 578.854 81.7813 54.7733 -104.962 92.0193
