#Rx
# X(m), Y(m), Z(m), Distance(m), Power (dBm) Phase (deg)
1 688.286 525.003 137.427 116.457 -117.268 83.7862
2 749.1 732.858 134.162 195.671 -110.443 33.5507
3 750.453 716.426 135.383 181.966 -123.769 112.024
4 828.408 358.81 130.554 234.559 -114.937 -143.264
5 823.454 380.974 132.229 214.701 -116.478 44.2121
6 814.779 419.778 134.262 181.132 -112.218 -23.4625
7 752.452 698.589 136.333 167.478 -119.153 103.569
8 747.074 722.649 135.087 187.146 -113.162 -92.6556
9 735.857 772.825 131.126 230.755 -115.267 117.371
10 765.997 637.935 137.505 124.48 -114.121 -111.427
