#Rx
# X(m), Y(m), Z(m), Distance(m), Power (dBm) Phase (deg)
1 687.989 528.508 187.971 159.725 -130.583 176.662
2 748.756 737.031 184.228 226.777 -119.158 151.513
3 750.103 720.678 185.443 215.082 -113.376 -31.603
4 824.387 376.801 182.325 243.415 -117.506 -158.17
5 815.654 415.865 184.486 213.962 -119.491 24.1476
6 753.323 694.693 186.835 197.539 -121.209 75.8968
7 747.866 719.105 185.771 214.098 -116.618 -64.7059
8 736.604 769.485 181.794 251.731 -120.218 -121.625
9 767.807 640.743 187.862 167.685 -123.167 -38.6325
