#Rx
# X(m), Y(m), Z(m), Distance(m), Power (dBm) Phase (deg)
1 686.324 548.128 88.8201 76.456 -125.631 73.4957
2 742.968 562.482 87.4652 45.1121 -97.4132 162.441
3 692.66 607.855 89.2576 85.5531 -139.01 -91.4303
4 663.253 634.377 88.7246 120.472 -135.519 -150.836
5 847.635 538.734 83.1489 111.5 -130.476 -149.605
6 814.159 422.553 85.0054 159.192 -125.859 60.5532
7 774.565 599.669 88.0596 66.8066 -102.318 31.7917
8 771.123 615.068 88.1333 75.7885 -105.308 -53.0276
9 753.899 692.115 87.0935 139.654 -111.222 -17.9211
10 728.614 805.224 50.0033 245.953 -250 0
