#Rx
# X(m), Y(m), Z(m), Distance(m), Power (dBm) Phase (deg)
1 674.991 681.687 186.996 201.798 -153.496 119.538
2 699.178 396.643 187.508 223.379 -131.693 31.6969
3 844.784 470.654 182.999 193.583 -119.104 30.7133
4 674.377 624.344 188.593 174.947 -134.211 -123.514
5 835.813 539.017 183.731 168.66 -119.71 -97.7039
6 773.244 439.778 186.732 189.714 -122.967 -157.167
7 793.641 514.338 186.541 158.416 -120.92 -163.379
8 752.202 699.708 186.579 200.771 -130.049 14.616
9 742.407 743.526 183.792 231.628 -123.844 163.51
10 718.501 564.26 186.944 147.077 -139.84 -135.617
