#Rx
# X(m), Y(m), Z(m), Distance(m), Power (dBm) Phase (deg)
1 675.08 680.641 105.09 153.292 -133.936 105.944
2 699.191 396.487 105.54 181.38 -148.473 81.967
3 843.841 471.505 101.097 144.344 -122.022 -152.405
4 673.649 625.001 106.619 116.481 -130.591 -64.7427
5 834.643 539.045 101.845 108.7 -123.004 -48.2883
6 773.272 439.443 104.771 138.392 -113.451 110.135
7 793.335 515.707 104.595 89.7511 -107.604 -135.308
8 751.868 701.202 104.577 154.347 -117.01 134.577
9 742.105 744.874 101.72 194.159 -111.401 -92.7181
10 718.211 563.809 104.958 68.4458 -105.52 -41.2452
