#Rx
# X(m), Y(m), Z(m), Distance(m), Power (dBm) Phase (deg)
1 697.45 417.007 88.176 157.76 -250 0
2 698.745 401.748 87.4021 171.146 -147.066 157.086
3 820.429 492.62 84.686 108.892 -123.484 -179.827
4 660.28 637.059 88.5867 124.128 -130.598 164.62
5 741.526 541.272 86.5199 48.0256 -111.565 24.8099
6 659.882 543.224 90.2534 99.8794 -116.345 -64.119
7 757.193 634.616 87.935 88.0627 -106.222 -156.809
8 773.342 438.585 86.7565 132.083 -114.336 -123.734
9 807.548 452.126 85.5781 131.448 -105.527 -111.492
10 722.56 832.309 49.664 273.409 -250 0
