#Rx
# X(m), Y(m), Z(m), Distance(m), Power (dBm) Phase (deg)
1 699.179 396.628 86.1244 175.453 -142.189 170.982
2 747.654 558.256 85.8703 43.4134 -103.84 -176.041
3 757.767 540.883 85.4486 48.4403 -103.061 18.8481
4 759.343 608.514 86.8428 67.0512 -104.015 55.1921
5 749.669 711.039 85.1082 156.97 -109.388 13.6458
6 810.694 438.054 84.0765 144.162 -139.018 -13.0291
7 780.157 574.656 86.1495 57.3123 -105.037 -12.9252
8 719.065 565.134 85.6968 51.1449 -109.559 -137.855
9 716.605 561.319 85.7264 52.2711 -116.268 43.5508
10 715.569 559.712 85.6462 52.7794 -108.792 161.141
