#Rx
# X(m), Y(m), Z(m), Distance(m), Power (dBm) Phase (deg)
1 676.921 658.943 98.103 132.855 -129.552 -177.728
2 682.432 593.998 99.0908 91.6328 -127.7 -32.8216
3 672.411 542.924 99.3898 94.555 -116.751 67.1653
4 751.33 705.784 96.3327 155.489 -112.14 -140.139
5 754.089 672.295 97.3011 125.205 -106.967 177.702
6 761.156 586.515 97.778 63.133 -102.515 -159.483
7 762.697 567.808 97.415 57.9035 -108.487 -137.796
8 723.469 828.241 59.6778 269.732 -250 0
9 720.482 567.333 97.125 60.7145 -102.557 -78.6419
