#Rx
# X(m), Y(m), Z(m), Distance(m), Power (dBm) Phase (deg)
1 674.727 684.803 136.774 171.868 -129.178 -63.8279
2 691.348 488.922 138.264 131.169 -124.166 -20.5955
3 794.369 516.123 136.351 114.317 -115.612 145.803
4 730.928 573.341 137.51 97.096 -132.726 16.8336
5 660.472 543.21 140.352 131.024 -121.259 57.7731
6 659.17 543.241 140.411 131.918 -118.082 108.105
7 748.621 738.664 133.953 200.716 -111.748 22.2838
8 751.894 698.94 136.617 167.907 -111.89 152.032
9 827.464 363.036 131.285 230.889 -112.991 64.7834
10 810.185 440.328 135.255 164.439 -109.547 -85.9556
