#Rx
# X(m), Y(m), Z(m), Distance(m), Power (dBm) Phase (deg)
1 698.164 408.596 87.4825 165.024 -250 0
2 699.179 396.627 87.4081 175.777 -145.754 109.848
3 661.951 635.551 88.6126 122.051 -129.321 63.1239
4 678.064 542.789 88.9801 84.0815 -124.958 -7.41718
5 668.14 543.026 89.6751 92.5933 -114.932 84.5686
6 758.31 621.055 88.0657 77.1579 -102.546 -113.674
7 816.95 410.067 84.0689 170.997 -148.251 -34.4523
8 794.89 508.748 86.3148 83.2745 -107.18 21.1144
9 729.097 580.696 87.6227 52.421 -115.374 107.086
