#Rx
# X(m), Y(m), Z(m), Distance(m), Power (dBm) Phase (deg)
1 680.298 619.142 138.649 130.593 -132.153 74.7307
2 694.956 446.396 139.031 157.56 -120.054 -105.45
3 804.863 539.757 135.923 112.241 -114.284 14.5265
4 764.05 551.386 137.159 96.7257 -127.952 13.0079
5 748.682 737.931 134.154 200.156 -121.646 82.2962
6 755.588 654.098 137.887 134.315 -113.449 -168.946
7 827.236 364.053 131.462 230.01 -115.764 98.962
8 790.199 529.733 136.79 108.425 -117.467 34.6239
9 789.169 673.878 135.878 153.45 -116.818 -82.3114
10 747.651 609.476 138.159 107.688 -120.031 -179.935
