#Rx
# X(m), Y(m), Z(m), Distance(m), Power (dBm) Phase (deg)
1 699.208 396.293 92.6455 177.487 -149.388 -59.5632
2 714.015 588.594 93.2487 66.4356 -116.179 -73.9395
3 667.136 630.875 93.76 117.762 -132.921 -133.41
4 833.586 539.07 89.0232 101.348 -122.226 -139.303
5 717.526 541.845 91.3536 59.3693 -107.833 67.0469
6 759.48 606.853 93.1037 70.2518 -99.3034 152.279
7 764.172 549.905 92.3498 53.9885 -105.899 101.624
8 770.357 474.819 91.6711 101.314 -109.309 -166.319
9 794.684 509.672 91.5661 85.4876 -129.609 -148.486
10 781.594 568.227 92.481 61.8899 -102.388 140.601
