#Rx
# X(m), Y(m), Z(m), Distance(m), Power (dBm) Phase (deg)
1 686.094 550.843 188.684 158.227 -140.966 114.738
2 745.043 560.611 187.194 144.675 -142.768 -10.3364
3 694.488 606.206 189.054 162.048 -130.476 144.835
4 663.93 633.766 188.492 182.985 -130.026 111.548
5 814.81 419.639 184.627 211.257 -120.677 -117.116
6 775.152 597.045 187.784 152.718 -135.89 136.776
7 771.708 612.45 187.858 156.633 -124.296 -140.154
8 754.46 689.609 186.912 194.211 -120.234 116.817
9 729.151 802.825 149.764 265.986 -250 0
