#Rx
# X(m), Y(m), Z(m), Distance(m), Power (dBm) Phase (deg)
1 687.945 529.03 110 94.2481 -109.836 76.7697
2 698.923 399.648 109.594 180.076 -161.031 -37.6577
3 785.157 524.431 108.749 84.7597 -113.765 32.7015
4 749.49 728.116 106.976 180.082 -117.668 -13.1533
5 758.491 618.861 110.276 90.6148 -109.543 -113.089
6 771.985 455.059 108.47 126.636 -114.105 8.29142
7 817.298 408.511 106.144 179.109 -116.967 -35.2225
8 752.817 696.957 108.692 152.257 -108.565 -86.5723
9 722.585 832.196 71.7136 274.757 -250 0
