#Rx
# X(m), Y(m), Z(m), Distance(m), Power (dBm) Phase (deg)
1 680.938 611.61 103.462 103.006 -127.144 -2.84964
2 697.715 413.88 102.52 165.172 -250 0
3 660.873 636.524 103.126 129.519 -130.453 146.33
4 773.135 540.516 101.738 67.9873 -105.989 -68.9987
5 726.123 541.64 101.083 64.5087 -107.37 73.566
6 810.388 439.423 100.006 148.286 -115.372 -124.801
7 781.247 569.78 102.03 69.8498 -102.65 -54.474
8 744.941 732.189 99.4686 181.364 -110.337 67.086
9 741.546 747.376 98.16 195.512 -112.383 -87.1371
10 725.736 818.097 64.4283 259.817 -250 0
