#Rx
# X(m), Y(m), Z(m), Distance(m), Power (dBm) Phase (deg)
1 681.539 604.522 111.27 104.228 -124.661 60.2419
2 684.086 574.501 111.909 94.1162 -124.406 136.54
3 685.962 552.396 111.204 91.5389 -124.64 17.1071
4 827.427 486.308 106.381 127.038 -115.854 72.1473
5 801.757 509.46 108.299 99.9474 -104.547 70.3421
6 790.749 519.389 109.022 89.8538 -114.8 -20.0273
7 739.443 565.661 109.7 67.7324 -103.046 -96.5832
8 664.256 633.473 110.955 129.473 -119.805 123.056
9 797.391 497.564 108.562 104.405 -117.694 -112.516
10 722.448 832.806 72.1239 275.416 -250 0
