#Rx
# X(m), Y(m), Z(m), Distance(m), Power (dBm) Phase (deg)
1 674.611 686.172 97.8499 155.167 -124.266 98.1707
2 691.226 490.358 99.3983 105.285 -118.243 147.899
3 795.423 515.172 97.4342 86.414 -116.978 -79.3303
4 731.841 572.517 98.6526 59.2253 -103.425 8.5428
5 660.754 543.203 101.489 105.004 -120.303 80.5851
6 659.2 543.24 101.568 106.308 -128.678 -61.8411
7 748.504 740.086 94.9916 187.591 -113.837 -31.435
8 751.783 700.279 97.7345 150.864 -109.713 -167.962
9 827.798 361.541 92.3283 220.358 -130.095 33.9919
10 810.487 438.978 96.391 147.331 -112.861 -139.291
