#Rx
# X(m), Y(m), Z(m), Distance(m), Power (dBm) Phase (deg)
1 694.248 454.747 138.8 151.742 -123.653 -17.6828
2 696.635 426.61 138.894 171.805 -135.397 83.8745
3 724.429 579.202 137.65 99.4134 -131.836 -127.134
4 750.336 717.845 135.677 183.334 -113.081 -29.2146
5 757.348 632.734 137.953 120.523 -117.603 -53.3402
6 768.751 494.317 136.372 116.787 -120.233 -105.103
7 771.926 455.776 136.416 142.655 -114.866 -3.58118
8 773.427 437.561 136.777 156.931 -112.142 -78.8124
9 803.463 470.398 135.821 141.545 -113.462 55.01
10 721.41 568.772 137.271 98.2783 -125.073 137.34
