#Rx
# X(m), Y(m), Z(m), Distance(m), Power (dBm) Phase (deg)
1 687.061 539.449 91.4332 79.2991 -114.533 42.0971
2 699.192 396.48 90.5925 176.75 -151.027 -81.6963
3 741.697 563.628 90.5695 48.3744 -108.146 5.25994
4 667.589 630.466 91.8516 116.392 -130.904 -36.5418
5 752.153 695.791 89.8921 143.947 -108.614 81.0578
6 762.114 574.882 90.9097 53.1259 -102.351 -3.49214
7 819.984 396.494 86.744 184.834 -136.672 104.114
8 794.017 512.654 89.5594 82.2175 -116.975 30.3754
9 780.297 574.03 90.6087 60.7065 -101.722 123.871
10 732.68 787.038 83.7024 231.127 -117.682 -109.986
