#Rx
# X(m), Y(m), Z(m), Distance(m), Power (dBm) Phase (deg)
1 693.971 458.005 107.492 131.647 -142.928 157.88
2 696.429 429.044 107.808 154.495 -250 0
3 726.356 577.464 106.363 69.0385 -103.625 85.4492
4 750.098 720.74 104.18 172.208 -111.679 78.7496
5 757.124 635.456 106.669 99.6599 -109.789 -98.3247
6 768.528 497.025 105.111 91.5998 -112.031 129.673
7 771.759 457.802 105.156 122.6 -110.285 23.7991
8 773.419 437.649 105.518 140.321 -110.902 102.506
9 804.043 467.806 104.523 125.35 -114.003 157.366
10 722.297 570.147 106.07 68.5782 -103.461 142.722
