#Rx
# X(m), Y(m), Z(m), Distance(m), Power (dBm) Phase (deg)
1 689.136 514.992 137.956 119.861 -120.636 58.6267
2 787.322 522.479 136.629 109.413 -118.12 104.52
3 669.119 629.086 138.542 141.079 -130.618 36.4137
4 739.308 541.325 136.491 96.0386 -124.201 -5.92362
5 763.135 562.493 137.438 96.4808 -134.891 47.6205
6 765.59 532.691 136.576 99.8767 -135.956 55.4523
7 824.519 376.209 132.421 219.148 -114.877 -34.8154
8 785.986 548.579 136.971 103.198 -128.399 172.761
9 772.825 607.453 137.788 109.758 -122.811 44.2194
10 785.254 667.807 136.237 148.14 -116.428 -38.3479
