#Rx
# X(m), Y(m), Z(m), Distance(m), Power (dBm) Phase (deg)
1 684.525 569.33 189.491 159.58 -131.843 -158.034
2 687.926 529.252 187.859 159.501 -138.095 150.84
3 691.884 482.599 188.364 173.749 -119.963 -42.5866
4 744.931 560.711 187.336 144.818 -134.058 -84.0731
5 724.47 541.679 186.397 146.624 -143.607 -70.1858
6 675.585 542.848 189.154 163.563 -126.144 48.5716
7 763.011 563.995 187.456 145.982 -134.223 -179.112
8 772.676 446.672 186.731 185.34 -119.734 135.456
9 773.18 440.554 186.716 189.202 -126.083 65.3973
10 749.656 711.097 186.287 208.594 -125.741 -129.497
