#Rx
# X(m), Y(m), Z(m), Distance(m), Power (dBm) Phase (deg)
1 779.349 529.67 186.769 151.125 -149.894 114.674
2 797.238 539.939 186.453 154.089 -123.236 1.52273
3 762.378 571.674 187.547 146.412 -142.353 150.798
4 764.236 549.126 187.088 146.116 -134.32 26.8394
5 769.238 488.406 186.379 162.357 -122.01 -128.063
6 773.214 440.137 186.725 189.478 -120.979 -15.7205
7 810.939 436.959 185.203 199.283 -118.963 -43.1669
8 807.724 451.337 185.426 189.839 -120.823 -74.5166
9 724.282 573.228 187.415 147.105 -149.524 -120.379
10 717.417 562.579 186.895 147.196 -128.303 -24.8483
