#Rx
# X(m), Y(m), Z(m), Distance(m), Power (dBm) Phase (deg)
1 675.08 680.641 105.208 153.34 -134.017 -123.034
2 699.191 396.487 105.659 181.421 -143.08 26.0753
3 843.841 471.505 101.215 144.392 -118.735 129.272
4 673.649 625.001 106.737 116.546 -136.505 125.398
5 834.643 539.045 101.963 108.765 -135.212 -105.373
6 773.272 439.443 104.889 138.446 -114.304 -79.7429
7 793.335 515.707 104.713 89.8329 -109.966 39.6949
8 751.868 701.202 104.695 154.395 -137.174 160.31
9 742.105 744.874 101.839 194.195 -111.941 -168.396
10 718.211 563.809 105.076 68.5537 -106.301 121.974
