#Rx
# X(m), Y(m), Z(m), Distance(m), Power (dBm) Phase (deg)
1 694.109 456.376 138.775 150.648 -122.497 -109.318
2 696.532 427.825 138.979 170.942 -132.106 -21.6245
3 725.394 578.332 137.635 99.0294 -120.792 -57.2527
4 750.217 719.291 135.557 184.517 -113.671 -27.5349
5 757.236 634.097 137.94 121.33 -118.915 155.473
6 768.639 495.672 136.37 116.008 -117.547 -38.8505
7 771.844 456.775 136.415 141.912 -112.447 -28.6789
8 773.424 437.59 136.777 156.908 -113.633 -168.287
9 803.753 469.104 135.801 142.471 -113.638 -65.1118
10 721.845 569.447 137.299 98.2598 -126.816 54.7616
