#Rx
# X(m), Y(m), Z(m), Distance(m), Power (dBm) Phase (deg)
1 677.029 657.669 106.642 135.673 -125.335 -84.8971
2 682.525 592.907 107.608 96.6852 -126.212 -101.864
3 671.47 542.947 107.949 100.629 -114.852 136.127
4 751.444 704.396 104.867 157.374 -117.836 45.3118
5 754.203 670.91 105.835 127.971 -119.22 -173.07
6 761.277 585.038 106.254 70.1562 -103.968 -161.047
7 762.816 566.359 105.892 65.8689 -101.956 -59.4182
8 723.347 828.788 68.1716 270.958 -250 0
9 720.098 566.737 105.594 68.5143 -104.894 76.9484
