#Rx
# X(m), Y(m), Z(m), Distance(m), Power (dBm) Phase (deg)
1 681.056 610.22 138.827 126.547 -126.119 -101.65
2 697.796 412.932 137.788 181.736 -133.5 11.5453
3 660.808 636.582 138.461 149.421 -138.954 -136.098
4 771.746 540.549 137.055 99.8869 -123.376 -172.191
5 724.918 541.669 136.403 97.9479 -138.4 41.6608
6 810.128 440.584 135.359 164.29 -110.153 -139.367
7 780.921 571.239 137.386 101.708 -120.973 -52.5741
8 744.648 733.5 134.703 196.472 -111.215 -144.478
9 741.254 748.684 133.395 209.48 -126.418 114.807
10 725.514 819.092 99.764 266.129 -250 0
