#Rx
# X(m), Y(m), Z(m), Distance(m), Power (dBm) Phase (deg)
1 688.052 527.77 187.903 159.787 -130.091 -23.122
2 698.961 399.205 187.545 221.583 -133.616 -115.126
3 784.158 525.333 186.695 153.112 -127.496 155.139
4 749.612 726.64 185.049 219.307 -115.945 43.1515
5 758.589 617.668 188.236 157.213 -129.397 85.0979
6 772.064 454.101 186.44 180.571 -127.18 16.9257
7 817.004 409.827 184.157 218.297 -122.506 132.352
8 752.499 698.381 186.61 199.881 -117.719 88.6828
9 722.559 832.31 149.664 293.566 -250 0
