#Rx
# X(m), Y(m), Z(m), Distance(m), Power (dBm) Phase (deg)
1 681.056 610.22 109.416 105.898 -120.803 82.5068
2 697.796 412.932 108.377 168.194 -250 0
3 660.808 636.582 109.05 132.47 -128.577 34.8026
4 771.746 540.549 107.644 72.6762 -114.301 17.1295
5 724.918 541.669 106.991 70.2611 -100.192 -127.943
6 810.128 440.584 105.948 149.651 -108.02 160.837
7 780.921 571.239 107.975 75.0307 -107.92 -122.788
8 744.648 733.5 105.292 184.51 -113.441 -177.552
9 741.254 748.684 103.984 198.498 -112.123 -5.97923
10 725.514 819.092 70.3528 261.386 -250 0
