#Rx
# X(m), Y(m), Z(m), Distance(m), Power (dBm) Phase (deg)
1 699.178 396.643 187.508 223.379 -131.866 1.59984
2 717.379 585.561 187.781 150.24 -128.857 146.009
3 669.066 629.135 188.642 179.022 -139.296 -174.518
4 837.293 538.982 183.628 169.372 -123.223 110.998
5 721.806 541.743 186.262 146.899 -136.385 -118.301
6 759.131 611.086 188.017 154.76 -129.382 -101.446
7 763.807 554.325 187.351 146.028 -141.158 13.1074
8 770.063 478.391 186.53 167.263 -124.661 -159.521
9 795.691 505.165 186.359 161.756 -123.948 5.5663
10 782.48 564.265 187.289 149.352 -133.014 96.622
