#Rx
# X(m), Y(m), Z(m), Distance(m), Power (dBm) Phase (deg)
1 686.094 550.843 88.6845 76.1803 -115.389 22.1455
2 745.043 560.611 87.194 44.6849 -115.195 -28.6113
3 694.488 606.206 89.0538 83.3877 -137.769 -13.8229
4 663.93 633.766 88.4918 119.541 -125.416 -152.663
5 814.81 419.639 84.6267 161.892 -123.311 -32.8516
6 775.152 597.045 87.7839 65.3501 -107.686 -100.833
7 771.708 612.45 87.8577 73.94 -109.149 0.472374
8 754.46 689.609 86.912 137.26 -106.427 0.220308
9 729.151 802.825 49.764 243.517 -250 0
