#Rx
# X(m), Y(m), Z(m), Distance(m), Power (dBm) Phase (deg)
1 686.209 549.484 141.749 116.323 -129.504 -69.6015
2 744.007 561.545 140.326 97.8348 -126.371 -98.7741
3 693.575 607.03 142.152 122.008 -139.901 172.546
4 663.581 634.081 141.604 148.654 -133.798 -163.373
5 848.834 538.706 135.942 140.554 -124.525 -106.024
6 814.484 421.096 137.812 181.836 -112.07 -39.1483
7 774.859 598.357 140.918 109.479 -122.379 -14.456
8 771.416 613.759 140.992 115.03 -123.235 -151.302
9 754.179 690.862 139.999 163.381 -110.457 -99.326
10 728.883 804.022 102.88 251.957 -250 0
