#Rx
# X(m), Y(m), Z(m), Distance(m), Power (dBm) Phase (deg)
1 681.173 608.832 91.2203 94.6491 -131.086 -92.008
2 697.874 412.012 90.0866 162.723 -250 0
3 660.765 636.621 90.8241 124.374 -139.213 -174.01
4 770.356 540.582 89.4 56.2818 -103.157 65.4987
5 723.715 541.697 88.75 54.484 -101.612 42.6252
6 809.868 441.748 87.7405 141.8 -114.161 84.4948
7 780.596 572.693 89.769 59.9175 -106.517 75.7162
8 744.354 734.813 86.9655 180.381 -115.827 -1.96428
9 740.96 749.995 85.6571 194.895 -113.506 141.768
10 725.299 820.055 52.127 261.054 -250 0
