#Rx
# X(m), Y(m), Z(m), Distance(m), Power (dBm) Phase (deg)
1 682.792 589.759 108.019 95.7627 -128.023 -167.039
2 684.134 573.942 108.177 91.281 -116.968 125.453
3 689.205 514.173 106.478 97.0359 -118.405 108
4 659.794 543.226 108.87 110.067 -118.072 -19.7257
5 754.373 668.851 106.097 126.334 -106.996 -147.335
6 755.637 653.497 106.503 113.701 -105.961 -102.796
7 760.719 591.809 106.397 72.8584 -99.8233 169.148
8 772.803 445.134 105.373 133.651 -110.566 -101.427
9 799.287 489.079 104.62 108.283 -108.938 151.988
10 778.436 582.355 106.19 74.8683 -105.203 51.8751
