#Rx
# X(m), Y(m), Z(m), Distance(m), Power (dBm) Phase (deg)
1 684.765 566.502 89.383 77.3809 -119.244 -114.209
2 688.142 526.709 87.7621 80.6376 -111.448 -93.5425
3 692.07 480.413 88.3978 106.522 -118.645 -107.651
4 742.918 562.527 87.3666 45.0198 -111.013 137.924
5 721.782 541.744 86.3617 53.3065 -112.241 174
6 673.784 542.891 89.2799 87.7155 -118.7 162.979
7 763.24 561.214 87.4226 48.1104 -110.567 19.6459
8 772.791 445.274 86.7599 125.844 -107.275 -96.7792
9 773.242 439.797 86.7317 130.94 -111.374 166.474
10 749.02 713.943 86.0684 160.012 -107.338 87.4785
