#Rx
# X(m), Y(m), Z(m), Distance(m), Power (dBm) Phase (deg)
1 778.435 530.494 186.783 150.776 -141.148 121.798
2 795.633 539.978 186.564 153.662 -136.39 3.86577
3 762.501 570.187 187.53 146.297 -137.929 -46.4981
4 764.35 547.734 187.045 146.197 -141.218 -125.757
5 769.358 486.953 186.38 163.022 -126.478 -157.609
6 773.244 439.776 186.732 189.716 -122.48 127.037
7 810.663 438.193 185.222 198.447 -117.003 126.78
8 807.447 452.577 185.445 189.056 -121.046 138.908
9 723.701 572.326 187.377 147.077 -146.725 -92.9092
10 717.191 562.228 186.899 147.239 -138.339 110.271
