#Rx
# X(m), Y(m), Z(m), Distance(m), Power (dBm) Phase (deg)
1 688.158 526.513 141.853 119.722 -121.356 -129.928
2 698.996 398.791 141.544 194.943 -133.649 58.2628
3 783.161 526.232 140.708 110.279 -118.815 -77.9828
4 749.733 725.167 139.169 191.401 -120.412 30.9107
5 758.687 616.476 142.22 115.282 -122.472 82.9446
6 772.141 453.172 140.457 147.263 -113.83 137.018
7 816.709 411.145 138.219 190.566 -114.783 7.63989
8 752.181 699.803 140.575 170.872 -120.175 -34.9477
9 722.54 832.395 103.662 280.155 -250 0
