#Rx
# X(m), Y(m), Z(m), Distance(m), Power (dBm) Phase (deg)
1 680.405 617.891 97.9059 103.544 -137.768 59.2707
2 695.06 445.178 98.2934 137.438 -152.471 0.576601
3 803.496 539.79 95.2607 80.5946 -115.767 152.246
4 764.14 550.283 96.3675 57.6425 -104.485 -16.8083
5 748.786 736.659 93.502 183.888 -119.482 66.2498
6 755.706 652.658 97.144 107.996 -109.073 -84.1108
7 826.958 365.296 90.7987 216.32 -131.486 159.249
8 789.913 531.015 96.0669 75.0689 -106.809 0.486266
9 788.372 672.642 95.1944 131.369 -126.472 81.5982
10 746.886 608.29 97.3995 73.1031 -109.576 160.493
