#Rx
# X(m), Y(m), Z(m), Distance(m), Power (dBm) Phase (deg)
1 688.372 523.991 87.8144 81.663 -117.285 -112.482
2 699.059 398.042 87.5464 174.531 -142.914 16.952
3 845.106 470.363 82.977 139.618 -114.974 158.438
4 781.16 528.037 86.7408 64.9077 -105.319 113.997
5 749.976 722.222 85.4147 167.843 -105.971 90.1851
6 758.883 614.096 88.193 71.9584 -109.638 -65.2192
7 772.287 451.393 86.4949 120.083 -108.279 -9.48098
8 816.119 413.787 84.3468 167.464 -135.669 -133.687
9 751.546 702.642 86.5115 149.374 -118.908 2.84722
10 722.521 832.48 49.664 273.583 -250 0
