#Rx
# X(m), Y(m), Z(m), Distance(m), Power (dBm) Phase (deg)
1 682.67 591.196 189.377 162.942 -124.057 -137.187
2 684.012 575.38 189.578 160.325 -124.57 145.276
3 689.091 515.525 187.847 162.283 -129.564 102.272
4 659.823 543.225 190.258 171.852 -152.511 -177.513
5 754.281 669.967 187.455 182.116 -122.162 -100.285
6 755.545 654.622 187.882 173.706 -120.676 -133.865
7 760.622 592.994 187.801 149.693 -129.503 -11.6249
8 772.747 445.806 186.749 185.894 -121.415 133.588
9 799.559 487.863 185.991 169.279 -123.752 -113.715
10 778.827 580.603 187.556 150.121 -137.753 -0.386409
