#Rx
# X(m), Y(m), Z(m), Distance(m), Power (dBm) Phase (deg)
1 673.111 703.842 185.698 215.644 -137.456 -139.365
2 682.629 591.675 189.227 162.914 -133.249 22.144
3 687.863 529.99 187.888 159.409 -126.282 -37.6407
4 723.466 580.071 187.665 148.245 -132.989 -61.0935
5 753.21 682.959 187.179 189.99 -137.733 99.2716
6 755.332 657.201 187.857 175.091 -125.538 14.0971
7 768.39 627.292 187.959 161.805 -132.172 -21.2089
8 750.687 706.487 186.423 205.396 -117.784 49.1142
9 724.204 824.952 149.764 286.662 -250 0
10 780.441 660.34 186.679 178.984 -125.163 -47.1799
