#Rx
# X(m), Y(m), Z(m), Distance(m), Power (dBm) Phase (deg)
1 679.589 627.497 88.5594 105.288 -133.865 64.639
2 685.681 555.711 89.0105 76.2748 -117.437 78.3838
3 826.617 487.038 84.2574 116.466 -114.14 8.66812
4 751.805 541.026 86.6543 48.3865 -112.646 15.2872
5 669.123 543.003 89.7063 91.789 -110.06 98.0105
6 756.921 637.916 87.9032 90.8265 -109.878 88.8496
7 759.526 606.294 87.96 66.2613 -112.372 78.3223
8 768.698 494.961 86.371 81.6574 -104.312 -39.3504
9 725.165 820.652 49.664 261.581 -250 0
10 800.823 691.957 84.1893 148.843 -250 0
