#Rx
# X(m), Y(m), Z(m), Distance(m), Power (dBm) Phase (deg)
1 678.144 644.528 87.3703 117.306 -133.104 -153.118
2 691.569 486.319 87.1598 101.902 -119.1 85.827
3 668.24 543.024 88.6626 91.9975 -128.944 -35.4786
4 773.073 441.856 85.5442 128.614 -113.608 3.53603
5 756.774 639.696 86.7406 91.7751 -109.772 115.644
6 758.925 613.591 87.0416 70.8583 -106.708 -61.2054
7 768.153 501.581 85.358 75.7513 -108.258 119.365
8 779.189 658.398 85.6483 112.443 -131.974 -77.9952
9 768.436 641.718 86.6972 95.5638 -106.461 -70.0832
10 716.98 561.9 85.7576 52.1054 -109.492 12.7621
