#Rx
# X(m), Y(m), Z(m), Distance(m), Power (dBm) Phase (deg)
1 677.295 654.533 188.268 186.811 -134.885 -150.717
2 698.996 398.784 187.546 221.881 -129.718 141.372
3 745.402 541.179 186.711 145.411 -131.433 -0.546588
4 728.616 541.58 186.491 146.178 -143.908 -44.287
5 767.888 504.796 186.36 155.613 -127.486 -72.1111
6 770.627 471.541 186.538 170.797 -125.949 -44.2983
7 773.402 437.855 186.771 190.991 -122.177 37.5608
8 759.255 668.156 187.306 181.206 -117.161 4.22642
9 724.956 821.588 149.804 283.514 -250 0
10 801.061 692.325 184.151 201.494 -122.371 33.7175
