#Rx
# X(m), Y(m), Z(m), Distance(m), Power (dBm) Phase (deg)
1 674.495 687.543 186.613 205.285 -152.697 25.6359
2 691.104 491.795 188.219 169.979 -119.167 -140.462
3 796.478 514.221 186.205 159.022 -128.853 47.9168
4 732.754 571.694 187.482 146.032 -131.897 34.2686
5 661.063 543.195 190.311 171.282 -133.539 -38.4867
6 659.259 543.239 190.411 172.267 -129.518 -153.04
7 751.673 701.622 186.539 202.063 -118.402 66.7484
8 828.132 360.047 181.059 256.747 -121.489 -174.784
9 810.789 437.628 185.214 198.829 -120.813 -62.4861
