#Rx
# X(m), Y(m), Z(m), Distance(m), Power (dBm) Phase (deg)
1 687.061 539.449 107.61 90.1804 -129.822 -129.508
2 699.192 396.48 106.77 181.817 -150.214 141.909
3 741.697 563.628 106.747 64.4693 -107.67 4.09578
4 667.589 630.466 108.029 124.116 -127.547 -14.0543
5 752.153 695.791 106.069 150.05 -119.742 123.483
6 762.114 574.882 107.087 68.1878 -108.016 -122.193
7 819.984 396.494 102.921 189.357 -118.268 51.8165
8 794.017 512.654 105.737 92.4297 -110.309 122.539
9 780.297 574.03 106.786 74.1806 -105.245 -52.4321
10 732.68 787.038 99.8797 234.55 -118.797 168.904
