#Rx
# X(m), Y(m), Z(m), Distance(m), Power (dBm) Phase (deg)
1 679.479 628.801 100.631 111.961 -127.655 -80.1136
2 690.687 496.714 100.228 101.954 -118.011 33.3129
3 749.347 729.853 96.6286 178.293 -111.718 25.5622
4 750.737 712.987 98.1654 162.86 -115.379 -64.4555
5 765.735 530.924 98.4664 66.0645 -104.267 -105.738
6 769.706 482.722 98.4709 98.3054 -108.255 10.2635
7 808.418 448.235 97.4238 139.289 -118.138 -44.6191
8 768.995 624.586 99.9255 89.4151 -107.599 -70.0655
9 730.365 797.391 61.7099 238.678 -136.422 -140.226
10 715.618 559.788 98.8749 64.0202 -100.393 -42.7026
