#Rx
# X(m), Y(m), Z(m), Distance(m), Power (dBm) Phase (deg)
1 679.577 627.639 188.698 174.224 -144.875 -115.295
2 690.808 495.279 188.305 168.781 -129.075 -166.302
3 749.449 728.62 184.785 220.642 -123.848 -158.117
4 750.839 711.744 186.322 209.112 -120.607 74.395
5 765.822 529.87 186.488 148.413 -135.584 92.8651
6 769.811 481.45 186.526 165.753 -132.224 -86.4399
7 808.139 449.48 185.497 191.095 -123.805 30.3232
8 768.716 625.833 187.97 161.26 -123.352 132.934
9 730.079 798.671 149.764 262.141 -250 0
10 715.586 559.737 186.93 147.574 -129.672 67.2719
