#Rx
# X(m), Y(m), Z(m), Distance(m), Power (dBm) Phase (deg)
1 778.969 530.013 86.8144 62.8318 -105.795 -29.8949
2 752.941 553.487 87.2131 45.6919 -114.606 166.956
3 740.604 564.614 87.262 45.2983 -117.872 -161.383
4 664.639 633.127 88.6387 118.717 -132.169 -52.0382
5 734.892 541.43 86.4331 48.9517 -118.636 107.164
6 766.854 517.342 86.3455 64.6139 -109.561 83.5272
7 772.73 446.016 86.6047 125.1 -109.53 -101.393
8 759.385 667.578 87.4598 117.352 -103.237 -56.7927
9 796.826 500.091 86.2807 89.9281 -106.364 51.935
10 715.39 559.435 87.0733 54.055 -113.046 179.376
