#Rx
# X(m), Y(m), Z(m), Distance(m), Power (dBm) Phase (deg)
1 688.286 525.003 137.838 116.793 -118.679 -73.6694
2 749.1 732.858 134.574 195.864 -114.77 -163.802
3 750.453 716.426 135.795 182.177 -110.745 -161.325
4 828.408 358.81 130.966 234.714 -120.424 -149.839
5 823.454 380.974 132.641 214.873 -114.785 -120.125
6 814.779 419.778 134.673 181.341 -120.812 28.9922
7 752.452 698.589 136.745 167.709 -111.093 55.5629
8 747.074 722.649 135.498 187.35 -122.089 18.3506
9 735.857 772.825 131.537 230.913 -119.324 -131.881
10 765.997 637.935 137.917 124.794 -116.107 -65.1008
