#Rx
# X(m), Y(m), Z(m), Distance(m), Power (dBm) Phase (deg)
1 685.979 552.199 85.6392 74.3127 -127.27 -8.58493
2 746.079 559.676 84.081 41.5588 -104.706 -134.954
3 695.402 605.382 85.9745 80.6703 -130.856 -100.755
4 664.299 633.434 85.3983 117.923 -142.569 -111.631
5 815.136 418.182 81.4599 162.506 -135.194 137.397
6 775.445 595.733 84.6685 62.6105 -103.599 70.0453
7 772.002 611.137 84.7423 71.2288 -104.191 -95.6857
8 754.74 688.353 83.8438 135.123 -112.166 -6.03903
9 729.42 801.621 46.6669 242.225 -250 0
