#Rx
# X(m), Y(m), Z(m), Distance(m), Power (dBm) Phase (deg)
1 688.158 526.513 88.4521 81.0957 -113.608 48.8522
2 698.996 398.791 88.143 174.008 -142.514 96.4272
3 783.161 526.232 87.3076 67.2814 -106.126 51.2797
4 749.733 725.167 85.7683 170.775 -116.626 76.2614
5 758.687 616.476 88.8189 74.1201 -109.889 -29.5776
6 772.141 453.172 87.0561 118.654 -109.788 45.3446
7 816.709 411.145 84.8179 170.137 -156.23 93.4552
8 752.181 699.803 87.1744 146.891 -109.69 -12.3794
9 722.54 832.395 50.2614 273.512 -250 0
