#Rx
# X(m), Y(m), Z(m), Distance(m), Power (dBm) Phase (deg)
1 686.324 548.128 138.581 113.706 -129.113 46.1196
2 742.968 562.482 137.226 94.7833 -130.035 -15.496
3 692.66 607.855 139.018 120.194 -128.607 -120.073
4 663.253 634.377 138.485 146.927 -122.478 -106.867
5 847.635 538.734 132.91 137.665 -135.306 -50.9546
6 814.159 422.553 134.766 179.014 -111.496 -111.881
7 774.565 599.669 137.82 107.103 -123.33 -86.6077
8 771.123 615.068 137.894 112.956 -116.758 -65.4711
9 753.899 692.115 136.854 162.527 -110.519 -146.16
10 728.614 805.224 99.764 252.416 -250 0
