#Rx
# X(m), Y(m), Z(m), Distance(m), Power (dBm) Phase (deg)
1 675.169 679.598 110.746 154.839 -128.895 -38.4344
2 699.201 396.371 111.135 183.5 -150.292 172.626
3 842.896 472.357 106.757 145.589 -120.382 -56.1125
4 672.942 625.639 112.206 120.423 -126.025 -176.324
5 833.477 539.073 107.521 110.972 -128.454 -13.0791
6 773.297 439.136 110.372 141.268 -113.575 -137.143
7 793.029 517.076 110.211 92.9289 -103.061 133.452
8 751.533 702.699 110.137 158.004 -119.847 16.1936
9 741.805 746.218 107.212 197.179 -118.715 102.077
10 717.936 563.383 110.535 73.6522 -128.699 149.619
