#Rx
# X(m), Y(m), Z(m), Distance(m), Power (dBm) Phase (deg)
1 689.02 516.359 187.934 162.159 -122.066 129.543
2 788.482 521.433 186.645 155.123 -130.108 -31.2518
3 669.71 628.554 188.548 178.446 -131.264 82.5737
4 740.527 541.295 186.507 145.296 -145.786 -150.13
5 763.018 563.911 187.455 145.979 -134.015 156.911
6 765.479 534.03 186.617 147.706 -135.219 48.6081
7 824.825 374.839 182.317 245.031 -119.973 2.004
8 786.321 547.082 186.951 150.505 -133.514 -157.535
9 773.127 606.103 187.77 154.783 -125.733 -4.26457
10 785.978 668.929 186.171 184.658 -121.533 -1.42478
