#Rx
# X(m), Y(m), Z(m), Distance(m), Power (dBm) Phase (deg)
1 686.324 548.128 107.21 88.806 -114.127 -49.1782
2 742.968 562.482 105.855 63.4527 -105.436 -152.565
3 692.66 607.855 107.648 96.8318 -137.383 -126.358
4 663.253 634.377 107.115 128.651 -125.626 146.237
5 847.635 538.734 101.539 119.435 -123.146 97.1494
6 814.159 422.553 103.395 165.054 -110.794 -133.483
7 774.565 599.669 106.45 80.4744 -107.186 -90.6582
8 771.123 615.068 106.523 88.0886 -107.897 -177.899
9 753.899 692.115 105.484 146.563 -111.017 -148.264
10 728.614 805.224 68.3933 247.197 -250 0
