#Rx
# X(m), Y(m), Z(m), Distance(m), Power (dBm) Phase (deg)
1 694.248 454.747 188.8 187.493 -127.094 -101.579
2 696.635 426.61 188.894 204.093 -135.841 -119.278
3 724.429 579.202 187.65 147.972 -133.702 -54.7677
4 750.336 717.845 185.677 213.135 -128.392 -128.662
5 757.348 632.734 187.953 162.999 -129.951 -11.477
6 768.751 494.317 186.372 159.763 -122.508 -12.6536
7 771.926 455.776 186.416 179.554 -128.898 -106.646
8 773.427 437.561 186.777 191.188 -122.351 -173.46
9 803.463 470.398 185.821 178.507 -120.931 158.743
10 721.41 568.772 187.271 147.083 -138.784 163.762
