#Rx
# X(m), Y(m), Z(m), Distance(m), Power (dBm) Phase (deg)
1 697.345 418.248 100.252 160.603 -250 0
2 698.698 402.3 99.3899 174.186 -157.768 -13.6925
3 821.438 491.71 96.6046 115.236 -119.453 -135.796
4 660.302 637.039 100.577 129.033 -131.916 83.899
5 742.892 541.239 98.5262 59.1434 -111.199 -89.7671
6 659.97 543.222 102.236 106.057 -126.351 20.7347
7 757.095 635.803 99.912 95.7215 -109.322 86.8818
8 773.321 438.839 98.7397 136.333 -111.265 -139.069
9 807.844 450.804 97.5461 137.025 -113.12 -12.5247
10 722.585 832.195 61.6525 273.869 -250 0
