#Rx
# X(m), Y(m), Z(m), Distance(m), Power (dBm) Phase (deg)
1 676.813 660.214 138.115 154.814 -122.867 -128.335
2 682.339 595.09 139.153 120.919 -125.587 14.7608
3 673.387 542.901 139.408 122.276 -139.554 -110.44
4 751.216 707.171 136.379 174.629 -120.482 159.602
5 753.974 673.685 137.347 148.255 -109.812 -66.8632
6 761.034 587.993 137.882 100.513 -129.406 45.2246
7 762.578 569.253 137.518 96.8735 -130.45 -126.315
8 723.598 827.662 99.764 274.629 -250 0
9 720.881 567.951 137.237 98.3096 -130.864 68.0255
