#Rx
# X(m), Y(m), Z(m), Distance(m), Power (dBm) Phase (deg)
1 688.904 517.727 187.913 161.818 -129.937 -155.6
2 789.644 520.385 186.661 155.724 -126.669 -92.8307
3 670.321 628.003 188.554 177.979 -130.408 -61.7764
4 741.745 541.266 186.523 145.275 -138.127 -20.2839
5 762.9 565.335 187.472 146.028 -143.172 -9.62096
6 765.369 535.369 186.659 147.502 -131.819 -146.579
7 825.131 373.47 182.214 246.107 -117.348 -126.59
8 786.656 545.584 186.93 150.711 -139.441 -8.06339
9 773.429 604.754 187.751 154.422 -138.432 -32.8475
10 786.7 670.049 186.105 185.426 -129.955 16.4059
