#Rx
# X(m), Y(m), Z(m), Distance(m), Power (dBm) Phase (deg)
1 781.182 528.016 186.74 151.853 -128.063 -144.279
2 800.445 539.863 186.23 154.988 -135.459 -50.6826
3 762.133 574.646 187.583 146.687 -140.587 47.4348
4 764.006 551.913 187.175 145.992 -138.61 118.161
5 768.999 491.312 186.375 161.06 -126.738 114.145
6 773.149 440.933 186.709 188.953 -127.723 -28.9966
7 811.492 434.484 185.165 200.973 -121.492 -154.181
8 808.277 448.863 185.388 191.416 -119.721 -31.6944
9 725.455 575.046 187.49 147.186 -134.534 -24.4696
10 717.911 563.344 186.907 147.128 -129.257 156.625
