#Rx
# X(m), Y(m), Z(m), Distance(m), Power (dBm) Phase (deg)
1 689.136 514.992 109.591 98.7792 -115.838 -34.8971
2 787.322 522.479 108.264 86.239 -110.738 -131.375
3 669.119 629.086 110.178 123.534 -131.114 156.823
4 739.308 541.325 108.126 68.5366 -103.605 -34.7453
5 763.135 562.493 109.073 68.7653 -100.077 5.14713
6 765.59 532.691 108.211 73.7862 -105.364 -79.6623
7 824.519 376.209 104.056 209.119 -131.103 111.799
8 785.986 548.579 108.607 78.0791 -104.122 123.133
9 772.825 607.453 109.424 86.296 -104.701 76.0212
10 785.254 667.807 107.873 132.037 -110.996 -80.4964
