#Rx
# X(m), Y(m), Z(m), Distance(m), Power (dBm) Phase (deg)
1 680.82 612.997 138.767 127.75 -140.183 -156.91
2 697.633 414.856 137.924 180.298 -131.376 104.019
3 660.959 636.446 138.463 149.266 -121.966 130.643
4 774.523 540.483 137.091 100.685 -128.695 -178.658
5 727.328 541.611 136.434 97.4987 -133.646 -173.487
6 810.647 438.264 135.324 166.165 -109.941 54.8275
7 781.572 568.324 137.345 101.616 -122.034 -27.9801
8 745.235 730.876 134.905 194.251 -111.582 66.5254
9 741.839 746.064 133.597 207.199 -112.017 50.95
10 725.967 817.067 99.764 264.123 -250 0
