#Rx
# X(m), Y(m), Z(m), Distance(m), Power (dBm) Phase (deg)
1 677.295 654.533 88.2679 125.496 -132.623 -85.5227
2 698.996 398.784 87.5456 173.859 -152.249 19.2413
3 745.402 541.179 86.7106 48.0322 -111.603 -37.741
4 728.616 541.58 86.491 50.7407 -106.11 -163.493
5 767.888 504.796 86.3598 73.8119 -104.237 -165.496
6 770.627 471.541 86.5378 101.827 -105.512 -34.424
7 773.402 437.855 86.7714 132.771 -106.637 -43.2858
8 759.255 668.156 87.3065 117.809 -104.706 81.5218
9 724.956 821.588 49.804 262.534 -250 0
10 801.061 692.325 84.1511 149.246 -250 0
