#Rx
# X(m), Y(m), Z(m), Distance(m), Power (dBm) Phase (deg)
1 689.826 506.859 88.8935 90.1646 -113.292 -154.969
2 695.152 444.09 90.018 135.19 -139.686 95.8099
3 749.693 725.653 86.081 171.324 -115.522 107.388
4 778.115 583.79 88.4704 60.8971 -102.184 49.6793
5 811.214 435.724 86.1946 146.985 -114.194 71.0595
6 791.95 678.193 86.3881 134.183 -132.633 116.686
7 783.872 665.662 87.3746 120.873 -135.439 -135.94
8 769.999 644.143 88.5471 98.8643 -109.036 -3.97682
9 717.676 562.98 87.802 53.4908 -108.114 155.549
10 715.247 559.213 87.9865 54.8928 -109.08 -89.6498
