#Rx
# X(m), Y(m), Z(m), Distance(m), Power (dBm) Phase (deg)
1 682.109 597.806 138.295 121.176 -126.111 -90.6643
2 687.479 534.516 137.261 114.233 -118.362 -141.129
3 727.814 576.15 136.798 97.3614 -126.68 -74.9491
4 752.874 687.038 136.261 158.027 -111.862 165.068
5 754.996 661.285 137.018 138.812 -119.578 -170.697
6 769.631 621.743 137.202 115.475 -122.669 -158.553
7 751.946 700.851 135.753 169.015 -111.836 -116.822
8 724.923 821.737 98.9642 268.582 -250 0
9 783.881 665.676 135.564 145.804 -114.118 -137.59
