#Rx
# X(m), Y(m), Z(m), Distance(m), Power (dBm) Phase (deg)
1 699.211 396.253 87.5085 176.142 -141.782 96.4346
2 712.893 589.607 88.2221 63.7258 -118.864 143.972
3 666.548 631.405 88.6173 116.344 -131.416 -10.4189
4 832.351 539.1 83.972 98.0373 -119.608 119.513
5 716.1 541.879 86.3164 56.0371 -111.689 -49.9453
6 759.596 605.443 87.9499 65.6773 -106.011 43.1652
7 764.293 548.435 87.1669 49.6124 -117.339 155.766
8 770.455 473.63 86.5354 99.9742 -107.949 -61.2098
9 794.348 511.175 86.4524 81.5543 -120.387 -157.385
10 781.299 569.548 87.3623 57.8591 -116.523 -128.419
