#Rx
# X(m), Y(m), Z(m), Distance(m), Power (dBm) Phase (deg)
1 699.062 398.004 137.406 193.516 -138.853 -11.1514
2 733.824 570.729 137.366 96.2207 -124.965 30.1225
3 708.604 593.475 138.644 108.435 -121.29 -11.2062
4 819.001 539.419 134.9 119.525 -112.715 -66.7418
5 748.621 738.662 134.093 200.778 -112.417 -139.623
6 750.419 716.847 135.76 182.52 -119.031 24.6771
7 814.873 419.358 134.513 181.62 -111.728 -12.177
8 751.489 702.896 136.606 171.175 -112.822 138.313
9 738.105 762.767 132.311 221.898 -128.486 116.311
10 786.359 669.52 136.276 149.71 -116.934 -153.771
