#Rx
# X(m), Y(m), Z(m), Distance(m), Power (dBm) Phase (deg)
1 699.009 398.639 187.406 221.893 -133.618 3.3058
2 735.645 569.087 187.338 145.468 -133.274 17.8414
3 710.263 591.979 188.481 153.634 -130.549 -93.887
4 821.913 539.349 184.698 162.489 -123.921 124.166
5 750.181 719.736 185.521 214.432 -118.154 0.790896
6 815.509 416.512 184.377 213.408 -119.789 34.0837
7 752.066 700.316 186.665 201.252 -116.752 -58.9661
8 738.677 760.21 182.508 244.404 -117.585 -172.057
9 787.689 671.584 186.154 186.598 -121.259 -177.699
