#Rx
# X(m), Y(m), Z(m), Distance(m), Power (dBm) Phase (deg)
1 698.298 407.016 137.396 186.226 -137.645 -90.371
2 699.192 396.48 137.408 194.764 -145.71 105.331
3 661.467 635.988 138.608 148.836 -124.359 162.387
4 676.124 542.835 139.116 120.447 -120.976 38.6359
5 666.849 543.057 139.766 126.523 -121.798 -141.858
6 758.535 618.328 138.092 112.661 -120.912 -40.669
7 816.433 412.381 134.18 187.492 -131.936 -159.234
8 794.221 511.743 136.361 116.015 -114.241 158.21
9 803.28 695.768 133.574 173.217 -114.52 136.745
10 727.861 578.78 137.544 98.5419 -122.855 -154.845
