#Rx
# X(m), Y(m), Z(m), Distance(m), Power (dBm) Phase (deg)
1 682.499 593.209 139.194 120.335 -125.796 132.799
2 687.767 531.121 137.931 115.445 -134.444 -145.665
3 724.553 579.091 137.648 99.3635 -128.502 35.9535
4 753.126 683.977 137.149 156.125 -110.049 29.1989
5 755.248 658.222 137.847 137.185 -120.372 105.458
6 768.701 625.902 137.97 118.188 -117.648 164.044
7 751.002 705.077 136.455 172.903 -116.48 53.8703
8 724.372 824.2 99.764 271.194 -250 0
9 781.301 661.675 136.6 142.949 -115.324 83.5393
