#Rx
# X(m), Y(m), Z(m), Distance(m), Power (dBm) Phase (deg)
1 699.179 396.628 137.408 194.643 -133.625 172.207
2 747.654 558.256 137.154 94.661 -129.116 92.1965
3 757.767 540.883 136.732 96.8462 -127.308 164.054
4 759.343 608.514 138.127 108.035 -123.879 4.3941
5 749.669 711.039 136.392 177.869 -116.332 -18.1878
6 810.694 438.054 135.36 166.357 -118.899 -131.941
7 780.157 574.656 137.433 101.928 -127.551 -146.986
8 719.065 565.134 136.98 98.3564 -127.079 -125.29
9 716.605 561.319 137.01 98.9621 -124.041 -174.135
10 715.569 559.712 136.93 99.19 -126.428 -25.8617
