#Rx
# X(m), Y(m), Z(m), Distance(m), Power (dBm) Phase (deg)
1 699.201 396.371 105.353 181.417 -144.111 -102.019
2 715.137 587.583 105.846 75.6511 -116.34 23.7755
3 667.751 630.32 106.474 123.115 -133.899 -172.227
4 834.823 539.041 101.645 108.739 -126.437 9.31737
5 718.953 541.811 104.07 69.644 -102.187 35.4758
6 759.364 608.262 105.828 80.7176 -109.497 10.3412
7 764.05 551.376 105.104 65.6998 -103.949 -79.7484
8 770.259 476.008 104.378 107.094 -107.813 155.828
9 795.02 508.167 104.251 94.3391 -107.171 57.6368
10 781.889 566.909 105.171 72.5285 -103.52 -137.574
