#Rx
# X(m), Y(m), Z(m), Distance(m), Power (dBm) Phase (deg)
1 697.345 418.248 88.2636 156.694 -250 0
2 698.698 402.3 87.4014 170.648 -149.178 -103.537
3 821.438 491.71 84.6161 110.12 -117.555 55.6692
4 660.302 637.039 88.589 124.101 -134.991 0.18189
5 742.892 541.239 86.5377 47.9468 -116.89 -158.742
6 659.97 543.222 90.2472 99.8007 -131.448 -153.888
7 757.095 635.803 87.9235 89.0524 -106.32 171.193
8 773.321 438.839 86.7513 131.843 -107.473 -147.279
9 807.844 450.804 85.5577 132.667 -111.693 -56.058
10 722.585 832.195 49.664 273.294 -250 0
