#Rx
# X(m), Y(m), Z(m), Distance(m), Power (dBm) Phase (deg)
1 689.136 514.992 187.956 162.511 -120.719 -52.7607
2 787.322 522.479 186.629 154.537 -136.59 38.1538
3 669.119 629.086 188.542 178.9 -131.065 -101.557
4 739.308 541.325 186.491 145.328 -129.367 125.725
5 763.135 562.493 187.438 145.945 -135.86 129.592
6 765.59 532.691 186.576 147.921 -139.022 -124.599
7 824.519 376.209 182.421 243.958 -122.253 -67.0061
8 785.986 548.579 186.971 150.315 -128.36 164.361
9 772.825 607.453 187.788 155.155 -137.88 165.568
10 785.254 667.807 186.237 183.894 -122.195 -33.1329
