#Rx
# X(m), Y(m), Z(m), Distance(m), Power (dBm) Phase (deg)
1 780.265 528.844 136.755 104.997 -116.859 149.652
2 798.843 539.901 136.341 109.536 -116.941 -166.322
3 762.256 573.16 137.565 97.3156 -126.984 -27.409
4 764.121 550.52 137.132 96.7935 -125.355 -147.641
5 769.118 489.858 136.377 119.427 -116.806 91.4591
6 773.183 440.523 136.717 154.551 -113.118 128.738
7 811.216 435.719 135.184 168.181 -109.247 -154.124
8 808.001 450.1 135.407 156.683 -119.226 -164.168
9 724.87 574.139 137.452 98.2742 -126.422 96.1597
10 717.658 562.951 136.89 98.5754 -123.601 -27.5516
