#Rx
# X(m), Y(m), Z(m), Distance(m), Power (dBm) Phase (deg)
1 782.095 527.193 82.7994 63.2558 -117.874 -78.2338
2 802.049 539.824 82.1913 71.5685 -117.912 -177.199
3 762.011 576.128 83.6733 47.0083 -96.1196 -67.4797
4 763.891 553.307 83.2918 45.0215 -94.5334 -179.71
5 768.879 492.764 82.4464 81.4736 -111.007 -102.127
6 773.113 441.367 82.7725 128.176 -110.52 -54.1899
7 811.768 433.248 81.2187 147.949 -133.722 150.428
8 808.554 447.624 81.4413 134.372 -112.418 87.478
9 726.039 575.953 83.5998 48.3755 -103.206 39.3523
10 718.18 563.761 82.9967 49.2564 -105.946 -10.6579
