#Rx
# X(m), Y(m), Z(m), Distance(m), Power (dBm) Phase (deg)
1 688.088 527.34 137.926 116.285 -125.797 158.115
2 748.87 735.641 134.343 198.214 -115.557 -82.0937
3 750.22 719.261 135.56 184.493 -115.031 -69.0868
4 824.076 378.191 132.43 217.333 -117.005 79.1598
5 815.362 417.17 134.549 183.521 -111.819 176.463
6 753.032 695.993 136.805 165.628 -121.262 -145.546
7 747.601 720.288 135.68 185.399 -118.622 -162.295
8 736.355 770.597 131.709 228.907 -111.445 37.5338
9 767.205 639.809 137.88 126.143 -118.016 -50.7791
