#Rx
# X(m), Y(m), Z(m), Distance(m), Power (dBm) Phase (deg)
1 682.304 595.507 98.1853 91.7398 -129.173 119.082
2 683.646 579.695 98.3862 86.0034 -127.129 -30.4999
3 688.746 519.59 96.6842 88.5686 -120.094 -38.4132
4 660.087 543.219 99.1399 104.25 -121.484 -35.4872
5 754.005 673.313 96.2587 125.664 -127.122 80.565
6 755.266 658.002 96.7503 112.387 -111.081 -4.01984
7 760.329 596.552 96.7447 66.9422 -140.577 -117.202
8 772.568 447.981 95.6054 126.775 -110.806 104.52
9 800.376 484.21 94.8357 106.946 -106.715 20.1428
10 780.001 575.351 96.3836 65.5184 -107.967 -5.75104
