#Rx
# X(m), Y(m), Z(m), Distance(m), Power (dBm) Phase (deg)
1 689.136 514.992 87.9555 85.5766 -109.646 88.7717
2 787.322 522.479 86.629 71.1378 -112.684 -122.586
3 669.119 629.086 88.5423 113.143 -137.276 -70.1114
4 739.308 541.325 86.4909 48.2356 -124.802 144.059
5 763.135 562.493 87.4379 48.1363 -121.793 163.915
6 765.59 532.691 86.5757 55.4089 -114.394 11.4453
7 824.519 376.209 82.4205 203.804 -136.261 -102.608
8 785.986 548.579 86.9713 60.8684 -108.154 20.3417
9 772.825 607.453 87.7883 70.8539 -103.68 -36.6565
10 785.254 667.807 86.2374 122.777 -133.232 -89.8665
