#Rx
# X(m), Y(m), Z(m), Distance(m), Power (dBm) Phase (deg)
1 682.304 595.507 89.2845 86.6288 -124.626 26.7804
2 683.646 579.695 89.4854 80.507 -128.239 -151.071
3 688.746 519.59 87.7834 83.4234 -114.978 -5.95345
4 660.087 543.219 90.2391 99.6968 -116.192 -0.279163
5 754.005 673.313 87.3579 122.123 -110.748 157.39
6 755.266 658.002 87.8495 108.373 -108.492 149.838
7 760.329 596.552 87.8439 59.9605 -108.049 -110.794
8 772.568 447.981 86.7046 123.313 -108.634 91.2644
9 800.376 484.21 85.9349 102.886 -105.626 4.00222
10 780.001 575.351 87.4828 58.4217 -111.257 -113.071
