#Rx
# X(m), Y(m), Z(m), Distance(m), Power (dBm) Phase (deg)
1 688.904 517.727 137.913 118.937 -118.789 175.967
2 789.644 520.385 136.661 111.068 -116.242 -19.1752
3 670.321 628.003 138.554 139.905 -124.717 59.8763
4 741.745 541.266 136.523 95.9422 -125.598 -45.1001
5 762.9 565.335 137.472 96.588 -123.816 136.968
6 765.369 535.369 136.659 99.2137 -127.708 -100.753
7 825.131 373.47 132.214 221.584 -115.143 78.3605
8 786.656 545.584 136.93 103.794 -118.04 40.6863
9 773.429 604.754 137.751 108.736 -119.408 -60.435
10 786.7 670.049 136.105 150.082 -113.849 -1.8271
