#Rx
# X(m), Y(m), Z(m), Distance(m), Power (dBm) Phase (deg)
1 673.267 702.006 135.666 184.746 -136.662 -48.7219
2 687.441 534.961 138.078 114.833 -129.098 -101.223
3 696.357 429.89 138.985 169.405 -138.59 171.497
4 699.036 398.321 137.406 193.257 -134.398 178.994
5 659.464 543.234 140.412 131.726 -119.131 -124.888
6 752.306 693.932 136.902 163.966 -109.144 169.27
7 817.78 406.353 133.991 192.682 -111.181 -176.722
8 803.84 468.713 135.695 142.688 -116.014 124.716
9 776.953 588.986 137.532 104.043 -121.517 -55.2038
10 757.557 675.752 137.131 149.942 -118.486 43.3008
