#Rx
# X(m), Y(m), Z(m), Distance(m), Power (dBm) Phase (deg)
1 677.614 650.777 139.786 149.59 -121.43 77.2557
2 699.088 397.705 139.024 194.558 -133.501 28.0153
3 740.663 541.292 138.126 97.5619 -132.08 -63.5368
4 724.148 541.687 137.91 99.5564 -125.235 -47.0296
5 768.164 501.448 137.841 114.039 -115.408 0.805467
6 770.956 467.554 138.02 135.235 -118.504 -177.214
7 773.424 437.59 138.254 157.799 -116.33 38.1103
8 758.438 671.81 138.7 148.007 -114.182 157.505
9 724.466 823.781 101.282 271.103 -250 0
10 799.087 689.264 135.946 168.093 -117.593 81.2737
