#Rx
# X(m), Y(m), Z(m), Distance(m), Power (dBm) Phase (deg)
1 699.086 397.728 104.123 179.799 -153.154 134.651
2 732.912 571.551 104.096 63.9994 -104.595 116.593
3 707.772 594.225 105.442 81.1884 -135.795 -155.493
4 817.544 539.454 101.718 95.1035 -128.343 -177.553
5 748.743 737.184 100.932 186.583 -127.767 141.616
6 750.538 715.397 102.596 166.666 -112.404 28.1228
7 814.555 420.782 101.298 165.939 -114.708 -168.24
8 751.2 704.189 103.292 156.558 -110.331 -149.977
9 737.82 764.044 98.9293 211.855 -111.038 -4.59551
10 785.693 668.487 103.054 130.418 -119.698 173.33
