#Rx
# X(m), Y(m), Z(m), Distance(m), Power (dBm) Phase (deg)
1 687.061 539.449 138.249 114.278 -128.607 26.0703
2 699.192 396.48 137.408 194.764 -148.275 67.7547
3 741.697 563.628 137.385 95.0285 -127.607 -103.434
4 667.589 630.466 138.667 142.68 -121.305 112.178
5 752.153 695.791 136.708 165.371 -111.991 6.78684
6 762.114 574.882 137.726 97.6963 -129.607 -102.459
7 819.984 396.494 133.56 201.235 -117.309 4.31324
8 794.017 512.654 136.375 115.566 -117.126 27.3846
9 780.297 574.03 137.425 101.879 -118.427 164.767
10 732.68 787.038 130.518 243.858 -116.219 -85.9109
