#Rx
# X(m), Y(m), Z(m), Distance(m), Power (dBm) Phase (deg)
1 693.971 458.005 88.7493 123.478 -141.444 -55.1238
2 696.429 429.044 89.0653 147.557 -250 0
3 726.356 577.464 87.6203 52.1975 -113.859 -30.9758
4 750.098 720.74 85.4374 166.421 -112.475 43.5282
5 757.124 635.456 87.9269 88.763 -108.786 134.158
6 768.528 497.025 86.3687 79.9731 -116.139 127.476
7 771.759 457.802 86.4134 114.168 -113.18 102.708
8 773.419 437.649 86.7756 132.966 -111.993 -48.7979
9 804.043 467.806 85.7809 117.218 -110.887 -112.451
10 722.297 570.147 87.3274 51.6934 -111.821 -48.6405
