#Rx
# X(m), Y(m), Z(m), Distance(m), Power (dBm) Phase (deg)
1 674.379 688.908 110.659 162.448 -121.615 -99.1623
2 690.982 493.234 112.323 111.16 -121.317 -19.1162
3 797.535 513.268 110.258 97.0965 -111.824 -31.8894
4 733.67 570.868 111.594 70.9994 -110.205 -103.803
5 661.398 543.187 114.413 112.287 -114.272 -166.02
6 659.347 543.236 114.538 113.911 -116.062 83.9064
7 751.562 702.965 110.627 158.455 -112.4 -107.109
8 828.466 358.552 105.072 226.483 -123.239 -29.5208
9 811.09 436.282 109.319 154.933 -111.521 -38.5073
