#Rx
# X(m), Y(m), Z(m), Distance(m), Power (dBm) Phase (deg)
1 685.864 553.555 143.712 117.885 -131.5 163.037
2 747.118 558.739 142.086 99.5764 -134.589 -58.8286
3 696.317 604.556 144.013 121.465 -133.49 -114.32
4 664.686 633.085 143.423 148.775 -122.96 -51.81
5 815.462 416.725 139.411 186.386 -128.76 36.8277
6 775.738 594.424 142.671 109.995 -127.562 -64.4859
7 772.294 609.829 142.745 114.972 -126.059 91.4528
8 755.021 687.099 141.893 161.586 -114.642 40.0111
9 729.689 800.418 104.687 248.86 -250 0
