#Rx
# X(m), Y(m), Z(m), Distance(m), Power (dBm) Phase (deg)
1 698.344 406.47 137.537 186.735 -136.133 -82.9333
2 724.442 541.68 136.436 98.0817 -129.746 3.65718
3 761.008 588.303 137.886 100.599 -124.348 -129.35
4 763.37 559.637 137.404 96.4578 -129.796 117.606
5 800.154 485.203 135.95 131.361 -116.204 63.9908
6 791.12 525.612 136.582 109.843 -113.749 87.9081
7 784.453 555.439 137.207 102.295 -119.158 81.8691
8 724.091 825.458 99.804 272.45 -250 0
9 722.607 832.096 99.764 279.034 -250 0
10 715.231 559.188 137.076 99.4365 -128.268 165.272
