#Rx
# X(m), Y(m), Z(m), Distance(m), Power (dBm) Phase (deg)
1 679.313 630.758 188.524 175.414 -133.097 -15.3221
2 685.474 558.151 189.104 158.596 -133.186 -94.3032
3 828.547 485.298 184.124 180.125 -122.151 -151.115
4 754.405 540.964 186.688 145.659 -132.174 -119.322
5 670.867 542.961 189.584 166.018 -121.092 -95.0333
6 756.698 640.621 187.877 166.559 -121.647 134.146
7 759.286 609.21 187.995 154.143 -130.719 47.3842
8 768.466 497.774 186.368 158.329 -134.616 27.1909
9 725.533 819.005 149.664 281.037 -250 0
10 802.403 694.408 183.935 203.086 -118.103 137.697
