#Rx
# X(m), Y(m), Z(m), Distance(m), Power (dBm) Phase (deg)
1 686.946 540.798 138.301 114.146 -119.673 158.151
2 699.187 396.539 137.408 194.716 -132.529 -6.28673
3 742.83 562.606 137.368 94.9331 -127.193 66.7349
4 668.143 629.967 138.673 142.133 -125.355 29.4143
5 752.014 697.482 136.659 166.73 -133.14 29.6521
6 761.982 576.478 137.745 97.9489 -125.511 102.278
7 820.263 395.247 133.5 202.324 -114.797 -3.37755
8 794.313 511.33 136.355 116.22 -115.523 60.5366
9 780.559 572.855 137.408 101.797 -119.442 0.623359
10 732.964 785.765 130.636 242.701 -115.489 -167.634
