#Rx
# X(m), Y(m), Z(m), Distance(m), Power (dBm) Phase (deg)
1 674.611 686.172 105.948 158.235 -126.113 -99.6965
2 691.226 490.358 107.497 109.871 -120.071 129.054
3 795.423 515.172 105.533 91.7733 -106.979 -100.116
4 731.841 572.517 106.751 66.9501 -105.2 113.227
5 660.754 543.203 109.587 109.757 -117.511 -128.948
6 659.2 543.24 109.666 111.01 -122.37 116.605
7 748.504 740.086 103.09 190.015 -113.995 123.296
8 751.783 700.279 105.833 154.012 -108.853 88.1048
9 827.798 361.541 100.427 222.328 -123.884 -18.4906
10 810.487 438.978 104.489 150.481 -110.858 36.8496
