#Rx
# X(m), Y(m), Z(m), Distance(m), Power (dBm) Phase (deg)
1 699.179 396.628 87.4081 175.776 -145.53 89.4796
2 747.654 558.256 87.154 44.6952 -109.893 81.6232
3 757.767 540.883 86.7323 49.5815 -109.251 -103.885
4 759.343 608.514 88.1265 67.9066 -102.599 -57.7426
5 749.669 711.039 86.3919 157.323 -113.163 89.9836
6 810.694 438.054 85.3603 144.537 -109.414 56.3074
7 780.157 574.656 87.4332 58.2954 -114.813 94.173
8 719.065 565.134 86.9805 52.2331 -109.861 56.9909
9 716.605 561.319 87.0101 53.337 -119.682 99.6166
10 715.569 559.712 86.9299 53.8333 -116.457 122.756
