#Rx
# X(m), Y(m), Z(m), Distance(m), Power (dBm) Phase (deg)
1 673.418 700.234 185.769 213.197 -137.37 -58.1212
2 795.096 515.468 186.441 158.448 -125.771 111.579
3 759.815 547.288 186.968 145.659 -139.894 -163.178
4 726.016 577.771 187.625 147.546 -133.31 47.4769
5 807.416 452.714 185.587 189.075 -123.597 158.093
6 803.929 468.315 185.689 179.606 -127.781 154.899
7 785.329 551.518 187.112 150.082 -129.633 92.5221
8 758.668 670.784 187.346 182.776 -123.264 -127.621
9 756.151 622.662 188.078 158.795 -129.405 -27.2486
10 715.617 559.786 186.929 147.567 -134.381 111.155
