#Rx
# X(m), Y(m), Z(m), Distance(m), Power (dBm) Phase (deg)
1 676.921 658.943 105.56 136.144 -124.143 -60.1121
2 682.432 593.998 106.548 96.4148 -120.982 -161.338
3 672.411 542.924 106.847 99.2186 -123.613 -79.8378
4 751.33 705.784 103.79 158.224 -118.842 -24.2566
5 754.089 672.295 104.758 128.642 -107.702 142.897
6 761.156 586.515 105.235 69.7526 -106.28 117.721
7 762.697 567.808 104.872 65.0158 -107.449 -150.133
8 723.469 828.241 67.1346 270.308 -250 0
9 720.482 567.333 104.582 67.4994 -107.717 155.245
