#Rx
# X(m), Y(m), Z(m), Distance(m), Power (dBm) Phase (deg)
1 680.192 620.392 88.636 100.52 -135.689 -118.754
2 694.853 447.615 89.0123 131.938 -149.069 2.09492
3 806.23 539.724 85.8278 76.9027 -111.31 -84.4307
4 763.959 552.485 87.1933 48.7277 -129.368 78.9065
5 748.577 739.203 84.0484 183.969 -108.822 -92.5825
6 755.469 655.535 87.8733 106.176 -105.571 85.5267
7 827.516 362.804 81.3674 216.887 -120.479 114.495
8 790.486 528.45 86.7566 70.221 -124.873 139.569
9 789.965 675.113 85.7973 130.601 -133.732 -18.1918
10 748.416 610.663 88.161 68.2304 -109.539 -16.3768
