#Rx
# X(m), Y(m), Z(m), Distance(m), Power (dBm) Phase (deg)
1 699.191 396.488 89.2623 176.385 -154.642 -88.7809
2 716.258 586.572 89.6449 61.7341 -123.773 -114.681
3 668.395 629.739 90.3892 114.792 -132.015 136.321
4 836.057 539.011 85.4684 101.956 -118.824 -114.136
5 720.382 541.777 87.9973 55.2832 -103.759 1.01073
6 759.248 609.674 89.7543 69.8121 -102.492 163.153
7 763.929 552.851 89.0587 50.3792 -100.425 -43.5222
8 770.161 477.199 88.2853 97.6417 -108.054 -67.6116
9 795.356 506.666 88.1365 85.7968 -105.89 81.7582
10 782.184 565.587 89.0613 59.2138 -105.229 63.8397
