#Rx
# X(m), Y(m), Z(m), Distance(m), Power (dBm) Phase (deg)
1 685.979 552.199 88.7363 76.1514 -129.365 -61.1947
2 746.079 559.676 87.1782 44.6559 -122.602 -164.177
3 695.402 605.382 89.0716 82.3798 -123.952 -69.1193
4 664.299 633.434 88.4954 119.084 -131.914 21.3841
5 815.136 418.182 84.557 163.275 -122.395 175.008
6 775.445 595.733 87.7657 64.7358 -104.139 -78.6886
7 772.002 611.137 87.8394 73.1071 -102.867 -110.978
8 754.74 688.353 86.9409 136.102 -108.434 -36.0059
9 729.42 801.621 49.764 242.298 -250 0
