#Rx
# X(m), Y(m), Z(m), Distance(m), Power (dBm) Phase (deg)
1 682.867 588.869 139.428 119.204 -132.632 -19.5669
2 695.884 435.463 139.103 165.374 -118.378 -39.7638
3 697.631 414.869 137.925 180.289 -140.16 111.8
4 779.021 540.375 136.979 101.968 -135.543 -38.9966
5 761.78 578.936 137.734 98.3494 -122.943 5.07209
6 762.804 566.509 137.486 96.6568 -133.701 58.5166
7 764.004 551.935 137.316 96.8237 -126.892 139.167
8 736.773 768.729 131.952 227.267 -111.085 161.672
9 723.09 829.934 99.664 276.865 -250 0
10 715.618 559.787 136.929 99.1741 -122.2 30.5933
