#Rx
# X(m), Y(m), Z(m), Distance(m), Power (dBm) Phase (deg)
1 698.298 407.016 87.3959 166.412 -250 0
2 699.192 396.48 87.4083 175.91 -152.144 -36.8549
3 661.467 635.988 88.6079 122.653 -137.299 123.307
4 676.124 542.835 89.116 85.7212 -116.653 -125.729
5 666.849 543.057 89.7655 93.7218 -110.672 155.163
6 758.535 618.328 88.092 75.0713 -102.356 -170.462
7 816.433 412.381 84.1796 168.782 -125.601 -109.323
8 794.221 511.743 86.3611 81.0911 -116.123 -160.421
9 803.28 695.768 83.5738 152.968 -250 0
10 727.861 578.78 87.5437 52.0431 -109.737 -125.422
