#Rx
# X(m), Y(m), Z(m), Distance(m), Power (dBm) Phase (deg)
1 681.925 599.971 103.593 97.1226 -129.722 25.7802
2 684.544 569.112 103.928 87.3521 -114.305 161.95
3 686.398 547.262 103.233 86.025 -124.919 37.9988
4 824.063 489.342 98.8394 119.406 -122.758 82.4069
5 797.706 513.114 100.805 90.9313 -112.353 -72.4382
6 786.726 523.017 101.266 80.48 -104.05 -125.558
7 735.265 569.43 101.989 61.158 -105.666 8.04608
8 662.807 634.779 103.166 127.242 -136.999 89.538
9 796.138 503.167 100.873 95.6476 -106.362 13.9146
10 722.385 833.089 64.3491 274.976 -250 0
