#Rx
# X(m), Y(m), Z(m), Distance(m), Power (dBm) Phase (deg)
1 694.248 454.747 105.698 133.22 -142.302 115.754
2 696.635 426.61 105.791 155.668 -250 0
3 724.429 579.202 104.547 68.4172 -106.535 -127.913
4 750.336 717.845 102.574 168.937 -115.178 27.1368
5 757.348 632.734 104.85 96.4554 -106.354 115.634
6 768.751 494.317 103.269 92.3137 -109.97 161.063
7 771.926 455.776 103.313 123.41 -108.872 -44.8988
8 773.427 437.561 103.675 139.582 -112.667 91.5733
9 803.463 470.398 102.718 122.287 -107.99 -63.2314
10 721.41 568.772 104.168 66.945 -104.151 134.412
