#Rx
# X(m), Y(m), Z(m), Distance(m), Power (dBm) Phase (deg)
1 698.232 407.792 99.7312 169.475 -250 0
2 699.187 396.539 99.7136 179.392 -150.475 61.9036
3 661.698 635.779 100.915 127.511 -131.51 59.8279
4 677.08 542.812 101.354 92.2304 -115.557 68.4132
5 667.48 543.042 102.027 99.9679 -119.531 -169.799
6 758.422 619.691 100.384 84.055 -107.716 -53.6353
7 816.691 411.224 96.4296 173.313 -112.043 63.4047
8 794.556 510.243 98.6433 89.3468 -126.952 -174.562
9 728.471 579.725 99.8881 63.143 -102.707 -158.781
