#Rx
# X(m), Y(m), Z(m), Distance(m), Power (dBm) Phase (deg)
1 699.208 396.293 88.4525 176.349 -145.061 -52.2977
2 714.015 588.594 89.0556 63.2921 -118.579 -150.767
3 667.136 630.875 89.567 115.999 -128.833 178.771
4 833.586 539.07 84.8302 99.4944 -120.016 -60.2677
5 717.526 541.845 87.1606 55.9715 -113.918 -76.0384
6 759.48 606.853 88.9107 67.2958 -104.363 40.3693
7 764.172 549.905 88.1568 50.1448 -103.241 -77.0411
8 770.357 474.819 87.478 99.3475 -110.302 137.788
9 794.684 509.672 87.3731 83.1531 -107.94 159.283
10 781.594 568.227 88.288 58.5577 -101.084 -139.268
