#Rx
# X(m), Y(m), Z(m), Distance(m), Power (dBm) Phase (deg)
1 688.286 525.003 102.743 90.455 -122.644 -113.04
2 749.1 732.858 99.4788 182.026 -112.033 -3.62147
3 750.453 716.426 100.7 166.953 -111.433 140.19
4 828.408 358.81 95.8705 223.863 -128.93 -113.615
5 823.454 380.974 97.5456 202.674 -129.135 -58.2124
6 814.779 419.778 99.5783 166.277 -111.806 -86.3921
7 752.452 698.589 101.65 150.813 -117.67 -35.5835
8 747.074 722.649 100.403 172.644 -112.252 20.7589
9 735.857 772.825 96.4422 219.783 -115.621 -43.5814
10 765.997 637.935 102.822 100.547 -109.08 122.416
