#Rx
# X(m), Y(m), Z(m), Distance(m), Power (dBm) Phase (deg)
1 698.361 406.268 110.353 174.653 -250 0
2 699.194 396.45 110.364 183.144 -156.034 -157.214
3 661.255 636.18 111.562 133.234 -123.249 -67.0164
4 675.198 542.857 112.137 100.761 -120.837 -79.3911
5 666.245 543.072 112.764 107.616 -123.94 107.541
6 758.647 616.962 111.043 89.9973 -106.462 67.6478
7 816.174 413.538 107.191 174.807 -111.158 -8.1535
8 793.886 513.241 109.34 94.5723 -110.833 162.862
9 802.499 694.557 106.727 159.436 -118.146 -82.8757
10 727.268 577.859 110.462 72.7008 -103.86 47.9252
