#Rx
# X(m), Y(m), Z(m), Distance(m), Power (dBm) Phase (deg)
1 693.833 459.637 138.724 148.488 -119.388 108.224
2 696.325 430.262 139.151 169.223 -133.547 16.3208
3 727.321 576.594 137.605 98.31 -124.876 0.497689
4 749.979 722.185 135.318 186.897 -118.767 152.804
5 757.012 636.815 137.914 122.968 -121.474 132.858
6 768.417 498.377 136.367 114.484 -115.458 -8.63605
7 771.672 458.857 136.412 140.371 -119.107 149.761
8 773.412 437.737 136.774 156.789 -114.731 86.2031
9 804.332 466.513 135.761 144.346 -111.297 -138.981
10 722.762 570.869 137.357 98.2424 -133.164 63.3726
