#Rx
# X(m), Y(m), Z(m), Distance(m), Power (dBm) Phase (deg)
1 680.192 620.392 98.6032 105.465 -130.705 -129.27
2 694.853 447.615 98.9795 135.771 -148.338 113.839
3 806.23 539.724 95.795 82.9254 -124.329 -117.016
4 763.959 552.485 97.1605 58.0018 -115.093 -31.4262
5 748.577 739.203 94.0156 186.472 -120.446 -73.7248
6 755.469 655.535 97.8406 110.8 -108.58 -115.425
7 827.516 362.804 91.3346 218.892 -125.328 -168.524
8 790.486 528.45 96.7239 76.8902 -108.526 132.557
9 789.965 675.113 95.7645 134.233 -128.095 -13.6824
10 748.416 610.663 98.1283 75.2628 -107.022 52.0798
