#Rx
# X(m), Y(m), Z(m), Distance(m), Power (dBm) Phase (deg)
1 677.402 653.28 101.973 130.158 -122.539 -101.045
2 699.029 398.399 101.237 178.237 -145.287 -129.729
3 743.823 541.217 100.381 60.8691 -111.447 -74.2504
4 727.126 541.616 100.163 63.3757 -103.956 5.70365
5 767.98 503.68 100.052 83.4545 -102.897 63.5807
6 770.739 470.186 100.23 109.584 -108.916 -85.584
7 773.412 437.737 100.465 138.046 -111.102 -108.092
8 758.983 669.373 100.97 124.687 -110.105 42.4123
9 724.787 822.347 63.4951 264.037 -250 0
10 800.404 691.307 97.9478 152.556 -136.504 140.239
