#Rx
# X(m), Y(m), Z(m), Distance(m), Power (dBm) Phase (deg)
1 674.727 684.803 94.35 152.779 -126.715 46.1716
2 691.348 488.922 95.8407 104.315 -117.38 -14.2525
3 794.369 516.123 93.9271 83.1089 -111.178 133.897
4 730.928 573.341 95.0865 56.2852 -102.971 172.327
5 660.472 543.21 97.9284 103.279 -116.465 -110.718
6 659.17 543.241 97.9877 104.387 -123.754 133.968
7 748.621 738.664 91.5293 185.281 -113.46 -6.89357
8 751.894 698.94 94.1931 148.354 -108.45 5.65378
9 827.464 363.036 88.8612 218.125 -127.869 -108.249
10 810.185 440.328 92.8318 144.817 -113.892 81.6865
