#Rx
# X(m), Y(m), Z(m), Distance(m), Power (dBm) Phase (deg)
1 775.916 532.766 86.8612 60.0205 -107.637 -117.745
2 750.038 556.106 87.2575 45.0843 -113.608 -25.6009
3 737.757 567.182 87.3056 46.0972 -122.689 162.224
4 663.466 634.185 88.6273 120.169 -124.554 158.296
5 730.428 541.537 86.3747 50.0629 -110.963 143.71
6 767.24 512.655 86.3509 67.923 -109.918 -137.799
7 772.889 444.086 86.6441 126.908 -108.755 -136.878
8 758.497 671.549 87.3683 120.873 -105.196 -46.0954
9 795.934 504.079 86.3425 86.837 -105.147 -33.0494
10 715.247 559.213 87.0761 54.1413 -114.611 45.8692
