#Rx
# X(m), Y(m), Z(m), Distance(m), Power (dBm) Phase (deg)
1 698.164 408.596 187.483 214.999 -132.855 24.3975
2 699.179 396.627 187.408 223.326 -132.73 107.613
3 661.951 635.551 188.613 184.7 -138.512 144.651
4 678.064 542.789 188.98 162.361 -133.277 -51.9042
5 668.14 543.026 189.675 167.343 -130.264 121.396
6 758.31 621.055 188.066 158.309 -127.856 6.32702
7 816.95 410.067 184.069 218.057 -116.759 100.936
8 794.89 508.748 186.315 160.29 -124.382 152.042
9 729.097 580.696 187.623 147.539 -137.876 2.15132
