#Rx
# X(m), Y(m), Z(m), Distance(m), Power (dBm) Phase (deg)
1 682.676 591.126 139.379 119.832 -125.112 56.8816
2 695.632 438.432 139.056 163.2 -122.835 -36.8303
3 697.457 416.921 138.07 178.765 -135.948 0.884411
4 781.532 540.315 136.944 102.787 -117.057 -147.209
5 761.612 580.976 137.758 98.7592 -121.05 -8.78047
6 762.634 568.574 137.51 96.8126 -131.074 120.784
7 763.831 554.037 137.382 96.7035 -134.558 -21.186
8 737.393 765.954 132.166 224.782 -116.853 31.205
9 723.269 829.137 99.664 276.073 -250 0
10 715.729 559.961 136.927 99.1377 -124.284 50.7286
