#Rx
# X(m), Y(m), Z(m), Distance(m), Power (dBm) Phase (deg)
1 688.088 527.34 187.926 159.883 -124.843 -13.6414
2 748.87 735.641 184.343 225.767 -134.079 -156.054
3 750.22 719.261 185.56 214.106 -119.508 88.5106
4 824.076 378.191 182.43 242.331 -118.222 177.227
5 815.362 417.17 184.549 213.032 -120.813 143.44
6 753.032 695.993 186.805 198.395 -116.866 -177.783
7 747.601 720.288 185.68 214.915 -120.257 81.4451
8 736.355 770.597 181.709 252.62 -118.529 -105.737
9 767.205 639.809 187.88 167.176 -126.19 -17.4925
