#Rx
# X(m), Y(m), Z(m), Distance(m), Power (dBm) Phase (deg)
1 677.72 649.526 88.3219 121.551 -138.39 52.2203
2 699.114 397.399 87.5472 175.113 -138.996 -0.0597489
3 739.086 541.33 86.628 48.3899 -108.686 77.9531
4 722.657 541.723 86.4131 52.9646 -106.932 136.539
5 768.256 500.33 86.3649 77.3168 -101.645 -48.3173
6 771.061 466.276 86.5438 106.537 -108.545 -13.5212
7 773.427 437.561 86.7774 133.049 -105.34 70.632
8 758.166 673.027 87.1942 122.141 -110.8 -64.681
9 724.314 824.459 49.804 265.447 -250 0
10 798.43 688.244 84.5746 144.789 -141.006 154.259
