#Rx
# X(m), Y(m), Z(m), Distance(m), Power (dBm) Phase (deg)
1 698.232 407.792 187.426 215.513 -141.986 -30.345
2 699.187 396.539 187.408 223.388 -130.731 -151.34
3 661.698 635.779 188.61 184.907 -131.218 140.598
4 677.08 542.812 189.049 162.835 -123.512 45.0037
5 667.48 543.042 189.721 167.691 -132.789 -31.0175
6 758.422 619.691 188.079 157.809 -130.77 40.4077
7 816.691 411.224 184.124 217.215 -119.284 -74.7635
8 794.556 510.243 186.338 159.737 -135.992 80.1743
9 728.471 579.725 187.583 147.44 -148.229 46.7919
