#Rx
# X(m), Y(m), Z(m), Distance(m), Power (dBm) Phase (deg)
1 678.266 643.091 188.531 181.136 -148.541 115.23
2 691.675 485.064 188.325 172.698 -120.559 109.635
3 667.556 543.04 189.856 167.774 -122.41 43.6617
4 773.112 441.386 186.699 188.655 -131.828 -159.446
5 756.861 638.641 187.896 165.637 -125.926 -39.7746
6 759.03 612.32 188.172 155.308 -127.553 -46.6916
7 768.271 500.145 186.505 157.51 -140.2 -47.9392
8 778.377 657.139 186.868 176.973 -122.724 105.689
9 767.691 640.562 187.865 167.586 -124.389 -109.008
10 716.781 561.592 186.907 147.319 -136.98 -56.4474
