#Rx
# X(m), Y(m), Z(m), Distance(m), Power (dBm) Phase (deg)
1 687.061 539.449 94.0235 80.9224 -111.701 -8.14236
2 699.192 396.48 93.1827 177.472 -150.023 86.9039
3 741.697 563.628 93.1597 50.948 -104.372 37.4791
4 667.589 630.466 94.4418 117.513 -132.835 -90.3531
5 752.153 695.791 92.4823 144.82 -109.201 -164.561
6 762.114 574.882 93.5 55.4954 -105.093 -154.644
7 819.984 396.494 89.3342 185.47 -130.472 -141.62
8 794.017 512.654 92.1497 83.7263 -109.488 82.0766
9 780.297 574.03 93.1989 62.7782 -100.928 -146.269
10 732.68 787.038 86.2926 231.602 -118.544 179.554
