#Rx
# X(m), Y(m), Z(m), Distance(m), Power (dBm) Phase (deg)
1 673.509 699.153 185.833 212.499 -136.94 -20.8494
2 687.68 532.15 187.97 159.159 -132.172 -49.6282
3 696.57 427.372 188.807 203.549 -125.99 -72.3317
4 699.085 397.735 187.407 222.536 -138.456 178.199
5 659.259 543.239 190.411 172.267 -129.761 -146.075
6 752.524 691.29 186.978 195.312 -117.391 -16.3911
7 817.205 408.925 184.114 218.957 -117.077 76.0704
8 803.269 471.267 185.734 177.94 -121.15 -54.5091
9 776.246 592.151 187.576 151.62 -137.293 0.791251
10 756.875 678.804 187.061 187.413 -115.734 73.7584
