#Rx
# X(m), Y(m), Z(m), Distance(m), Power (dBm) Phase (deg)
1 684.885 565.084 189.329 159.099 -131.557 -86.1452
2 688.249 525.439 187.714 160.03 -130.486 -168.596
3 692.163 479.32 188.415 175.192 -123.472 51.6061
4 741.911 563.436 187.382 144.957 -132.849 34.6525
5 720.439 541.776 186.344 147.207 -138.21 -80.1927
6 672.925 542.912 189.34 164.885 -134.682 -125.65
7 763.355 559.821 187.406 145.918 -131.554 -164.649
8 772.846 444.615 186.773 186.661 -123.942 -40.3805
9 773.27 439.458 186.739 189.926 -123.536 70.2422
10 748.702 715.364 185.959 211.469 -118.175 86.7532
