#Rx
# X(m), Y(m), Z(m), Distance(m), Power (dBm) Phase (deg)
1 687.061 539.449 144.822 119.838 -124.532 65.9629
2 699.192 396.48 143.981 198.049 -135.653 69.5463
3 741.697 563.628 143.958 101.591 -127.921 -41.9756
4 667.589 630.466 145.24 147.189 -127.201 -141.318
5 752.153 695.791 143.281 169.201 -111.695 111.239
6 762.114 574.882 144.298 104.112 -129.202 -137.489
7 819.984 396.494 140.133 204.293 -114.73 -25.253
8 794.017 512.654 142.948 120.965 -117.791 -139.03
9 780.297 574.03 143.997 108.028 -155.783 157.261
10 732.68 787.038 137.091 246.306 -116.634 -120.434
