#Rx
# X(m), Y(m), Z(m), Distance(m), Power (dBm) Phase (deg)
1 699.169 396.746 106.556 181.508 -144.632 102.379
2 748.779 557.241 106.285 63.8816 -98.7392 -126.727
3 759.162 540.85 105.899 67.501 -104.585 21.3748
4 759.253 609.608 107.288 82.65 -104.675 79.644
5 749.935 709.849 105.594 162.628 -113.178 144.653
6 810.983 436.758 104.488 152.483 -112.871 106.76
7 780.447 573.357 106.563 73.9332 -105.221 108.186
8 719.391 565.641 106.15 69.1962 -105.046 -112.607
9 716.83 561.667 106.154 70.0181 -110.896 44.6254
10 715.585 559.737 106.078 70.4575 -106.482 86.5695
