#Rx
# X(m), Y(m), Z(m), Distance(m), Power (dBm) Phase (deg)
1 684.885 565.084 109.344 90.6961 -118.35 18.0652
2 688.249 525.439 107.729 93.7086 -126.592 100.927
3 692.163 479.32 108.43 117.266 -120.27 -94.4913
4 741.911 563.436 107.397 65.0929 -108.367 60.9514
5 720.439 541.776 106.359 71.137 -105.902 32.9102
6 672.925 542.912 109.355 100.491 -114.707 -179.392
7 763.355 559.821 107.421 67.1781 -104.141 -113.624
8 772.846 444.615 106.788 134.775 -113.445 -152.762
9 773.27 439.458 106.754 139.282 -115.49 95.8299
10 748.702 715.364 105.974 167.843 -111.844 143.055
