#Rx
# X(m), Y(m), Z(m), Distance(m), Power (dBm) Phase (deg)
1 679.313 630.758 111.748 119.356 -126.587 -162.151
2 685.474 558.151 112.327 92.4088 -128.978 58.4164
3 828.547 485.298 107.347 128.827 -122.104 -45.6476
4 754.405 540.964 109.912 70.528 -102.996 33.5509
5 670.867 542.961 112.807 104.283 -124.595 128.181
6 756.698 640.621 111.1 106.381 -107.556 54.5743
7 759.286 609.21 111.218 85.5399 -106.456 -135.743
8 768.466 497.774 109.591 94.2067 -109.664 -140.583
9 725.533 819.005 72.8873 261.581 -250 0
10 802.403 694.408 107.158 159.451 -123.119 135.988
