#Rx
# X(m), Y(m), Z(m), Distance(m), Power (dBm) Phase (deg)
1 689.611 509.386 85.6782 87.1994 -115.661 -63.0431
2 694.874 447.365 86.7909 131.378 -136.473 7.87572
3 749.513 727.843 82.724 172.626 -113.188 -20.2376
4 778.647 581.411 85.2617 57.886 -101.594 11.7755
5 811.796 433.125 82.9787 148.536 -121.133 53.8006
6 793.426 680.482 82.9749 135.652 -128.111 -107.122
7 785.323 667.913 84.0659 122.136 -132.288 -42.9205
8 771.26 646.099 85.2558 99.3835 -117.773 -66.2414
9 718.205 563.8 84.6602 50.6213 -110.585 -173.576
10 715.327 559.336 84.8093 52.2434 -107.052 -28.116
