#Rx
# X(m), Y(m), Z(m), Distance(m), Power (dBm) Phase (deg)
1 680.511 616.635 188.689 169.884 -127.34 -81.0806
2 695.163 443.958 189.07 193.716 -126.655 -113.823
3 802.132 539.822 186.113 155.486 -122.686 119.669
4 764.231 549.181 187.09 146.113 -138.884 -167.976
5 748.891 735.388 184.364 225.584 -119.837 -152.833
6 755.825 651.222 187.915 171.92 -122.675 97.2072
7 826.68 366.543 181.65 251.577 -118.31 -160.596
8 789.627 532.294 186.845 153.296 -125.516 169.417
9 787.576 671.408 186.024 186.367 -123.11 -85.6681
10 746.12 607.102 188.154 153.059 -134.463 96.5131
