#Rx
# X(m), Y(m), Z(m), Distance(m), Power (dBm) Phase (deg)
1 687.989 528.508 139.781 117.542 -119.046 141.413
2 748.756 737.031 136.039 200.231 -122.393 90.1306
3 750.103 720.678 137.253 186.569 -110.513 115.966
4 824.387 376.801 134.136 219.315 -116.096 158.383
5 815.654 415.865 136.297 185.526 -110.491 51.2424
6 753.323 694.693 138.645 165.636 -110.485 45.7547
7 747.866 719.105 137.582 185.348 -110.338 -106.084
8 736.604 769.485 133.605 228.622 -112.597 71.1066
9 767.807 640.743 139.672 128.191 -115.995 -58.0133
