#Rx
# X(m), Y(m), Z(m), Distance(m), Power (dBm) Phase (deg)
1 685.124 614.652 188.832 167.627 -128.06 172.693
2 661.433 543.187 190.285 171.078 -127.296 -104.798
3 755.384 656.571 187.863 174.75 -122.202 143.157
4 773.183 440.522 186.717 189.224 -121.833 -113.376
5 773.419 437.649 186.776 191.129 -120.511 111.377
6 803.983 468.071 185.685 179.745 -123.3 -163.472
7 782.437 564.455 187.192 149.253 -138.878 -22.6571
8 779.167 579.084 187.395 149.84 -130.128 -55.1014
9 744.518 734.082 184.519 224.654 -129.506 -78.7004
10 733.072 586.862 187.877 148.379 -138.802 29.6154
