#Rx
# X(m), Y(m), Z(m), Distance(m), Power (dBm) Phase (deg)
1 697.124 420.845 135.87 174.547 -131.76 60.5664
2 698.597 403.486 134.823 187.784 -139.411 43.1467
3 823.455 489.891 131.9 137.487 -110.347 -87.8105
4 660.411 636.94 136.021 148.28 -127.41 -67.537
5 745.631 541.173 133.997 93.3914 -123.741 142.855
6 660.235 543.215 137.652 129.177 -131.068 37.3114
7 756.899 638.178 135.324 121.83 -117.209 117.151
8 773.273 439.427 134.163 153.881 -114.916 -170.801
9 808.435 448.16 132.94 156.785 -109.601 92.8075
10 722.655 831.883 97.0873 278.285 -250 0
