#Rx
# X(m), Y(m), Z(m), Distance(m), Power (dBm) Phase (deg)
1 682.771 589.997 89.4033 84.2343 -128.657 -133.186
2 695.759 436.933 89.0798 140.844 -143.581 15.7288
3 697.545 415.881 87.9966 158.7 -250 0
4 780.278 540.345 86.9616 59.465 -105.617 -5.06114
5 761.696 579.957 87.7461 51.8623 -107.896 -2.52407
6 762.719 567.539 87.498 48.5701 -121.111 0.655582
7 763.918 552.988 87.349 48.7804 -116.015 65.2023
8 737.082 767.344 82.0591 211.268 -107.919 -154.809
9 723.177 829.549 49.664 270.607 -250 0
10 715.666 559.862 86.9281 53.7766 -113.689 132.267
