#Rx
# X(m), Y(m), Z(m), Distance(m), Power (dBm) Phase (deg)
1 688.904 517.727 84.7485 82.6435 -112.775 -125.261
2 789.644 520.385 83.4971 71.7845 -111.879 -63.7829
3 670.321 628.003 85.3899 110.405 -143.306 -149.198
4 741.745 541.266 83.3587 45.1283 -96.7416 -4.86244
5 762.9 565.335 84.3077 45.3872 -98.0037 146.88
6 765.369 535.369 83.4952 51.5801 -102.07 164.175
7 825.131 373.47 79.0494 205.887 -139.863 -159.824
8 786.656 545.584 83.7657 59.6795 -112.455 -59.2307
9 773.429 604.754 84.5868 67.2648 -104.606 129.9
10 786.7 670.049 82.9407 124.1 -122.882 -32.5525
