#Rx
# X(m), Y(m), Z(m), Distance(m), Power (dBm) Phase (deg)
1 679.38 629.965 138.74 136.349 -121.088 -69.8029
2 690.565 498.148 138.327 126.795 -124.818 -166.819
3 749.245 731.09 134.647 194.343 -111.542 10.7061
4 750.634 714.232 136.183 180.502 -109.799 -38.8078
5 765.648 531.977 136.62 100.128 -125.792 48.0173
6 769.602 483.992 136.591 123.219 -113.293 56.5247
7 808.695 446.994 135.526 159.219 -117.857 -14.5081
8 769.274 623.34 138.056 116.962 -118.144 -35.5625
9 730.652 796.108 129.708 252.158 -116.837 36.6418
10 715.666 559.863 136.995 99.222 -124.609 149.532
