#Rx
# X(m), Y(m), Z(m), Distance(m), Power (dBm) Phase (deg)
1 778.969 530.013 109.789 80.6898 -104.956 -86.8698
2 752.941 553.487 110.188 68.3307 -106.942 7.44032
3 740.604 564.614 110.237 68.0846 -106.366 51.3294
4 664.639 633.127 111.614 129.385 -131.882 -62.359
5 734.892 541.43 109.408 70.2977 -103.208 30.0922
6 766.854 517.342 109.32 81.9538 -108.192 -163.689
7 772.73 446.016 109.58 134.92 -109.873 -112.898
8 759.385 667.578 110.435 127.922 -125.506 163.168
9 796.826 500.091 109.256 103.08 -108.118 16.5618
10 715.39 559.435 110.048 74.1408 -107.273 -72.4904
