#Rx
# X(m), Y(m), Z(m), Distance(m), Power (dBm) Phase (deg)
1 677.029 657.669 88.2341 128.006 -130.372 59.355
2 682.525 592.907 89.2006 85.386 -125.318 -159.023
3 671.47 542.947 89.5419 89.7568 -116.267 -47.0271
4 751.444 704.396 86.459 151.031 -108.103 48.12
5 754.203 670.91 87.4274 119.936 -107.487 176.298
6 761.277 585.038 87.8466 53.9859 -108.717 -48.7516
7 762.816 566.359 87.4839 48.4216 -117.852 -56.9175
8 723.347 828.788 49.764 269.838 -250 0
9 720.098 566.737 87.1866 52.0682 -108.63 -100.817
