#Rx
# X(m), Y(m), Z(m), Distance(m), Power (dBm) Phase (deg)
1 699.201 396.371 83.3312 175.014 -149.658 -46.8624
2 715.137 587.583 83.8241 58.4728 -136.626 50.333
3 667.751 630.32 84.4518 113.251 -159.422 -163.951
4 834.823 539.041 79.623 98.5148 -123.476 -129.469
5 718.953 541.811 82.0475 51.2299 -109.179 94.3528
6 759.364 608.262 83.8063 64.9007 -105.312 -112.464
7 764.05 551.376 83.0815 45.2233 -100.769 77.6875
8 770.259 476.008 82.3555 96.0717 -109.497 71.6746
9 795.02 508.167 82.2286 81.6463 -106.305 17.141
10 781.889 566.909 83.1485 54.6454 -108.215 -54.9236
