#Rx
# X(m), Y(m), Z(m), Distance(m), Power (dBm) Phase (deg)
1 686.039 613.826 88.8495 92.9444 -131.845 -59.0285
2 661.8 543.178 90.2591 98.2412 -115.743 -66.2163
3 755.259 658.089 87.8487 108.451 -117.722 158.488
4 773.149 440.93 86.7086 129.874 -109.391 -42.2835
5 773.412 437.736 86.7738 132.884 -106.118 99.2557
6 804.317 466.578 85.6619 118.277 -104.972 -154.564
7 782.714 563.216 87.1744 57.8963 -117.576 -25.1512
8 779.446 577.837 87.3773 58.7252 -106.48 -17.0152
9 744.844 732.624 84.6308 177.689 -105.997 -7.69574
10 733.793 587.981 87.9234 54.7092 -120.125 176.257
