#Rx
# X(m), Y(m), Z(m), Distance(m), Power (dBm) Phase (deg)
1 680.405 617.891 138.663 129.988 -131.481 -151.065
2 695.06 445.178 139.05 158.419 -123.936 -144.647
3 803.496 539.79 136.018 111.604 -115.125 157.043
4 764.14 550.283 137.125 96.8135 -128.211 -86.4489
5 748.786 736.659 134.259 199.077 -110.68 65.0974
6 755.706 652.658 137.901 133.329 -119.161 -39.7599
7 826.958 365.296 131.556 228.89 -115.422 -170.844
8 789.913 531.015 136.824 107.986 -118.174 -98.6966
9 788.372 672.642 135.951 152.356 -113.203 -101.862
10 746.886 608.29 138.157 107.137 -125.77 -122.043
