#Rx
# X(m), Y(m), Z(m), Distance(m), Power (dBm) Phase (deg)
1 682.426 594.072 82.1944 82.3186 -136.972 -19.7533
2 683.768 578.256 82.3954 76.1309 -126.476 -52.0434
3 688.861 518.235 80.6836 80.408 -111.995 -116.192
4 659.969 543.222 83.1263 96.599 -128.022 12.1293
5 754.097 672.199 80.2691 118.655 -107.457 -31.6088
6 755.359 656.877 80.7394 104.562 -111.507 148.665
7 760.426 595.368 80.7088 54.0105 -102.18 -25.434
8 772.63 447.228 79.599 121.661 -112.368 60.6332
9 800.103 485.428 78.8327 99.0279 -112.217 150.801
10 779.61 577.103 80.3861 53.4389 -102.395 139.994
