#Rx
# X(m), Y(m), Z(m), Distance(m), Power (dBm) Phase (deg)
1 679.589 627.497 139.104 135.255 -120.068 34.0946
2 685.681 555.711 139.555 114.332 -126.575 -46.0497
3 826.617 487.038 134.802 142.611 -116.359 -74.1566
4 751.805 541.026 137.199 96.732 -129.986 -80.2028
5 669.123 543.003 140.251 125.497 -116.338 150.986
6 756.921 637.916 138.447 124.063 -116.143 75.9751
7 759.526 606.294 138.504 107.417 -124.691 -128.355
8 768.698 494.961 136.915 116.855 -116.706 113.563
9 725.165 820.652 100.208 267.77 -250 0
10 800.823 691.957 134.733 170.062 -115.899 43.8853
