#Rx
# X(m), Y(m), Z(m), Distance(m), Power (dBm) Phase (deg)
1 679.577 627.639 96.2582 108.97 -139.413 178.238
2 690.808 495.279 95.865 100.4 -125.29 68.9438
3 749.449 728.62 92.3451 175.86 -112.409 58.4479
4 750.839 711.744 93.8828 160.273 -121.785 -49.2001
5 765.822 529.87 94.048 62.8928 -104.195 -103.906
6 769.811 481.45 94.0868 96.9322 -107.981 -48.1338
7 808.139 449.48 93.0575 136.491 -110.022 61.7808
8 768.716 625.833 95.5303 87.5197 -108.128 118.378
9 730.079 798.671 57.3243 239.659 -250 0
10 715.586 559.737 94.4899 60.213 -105.272 21.7491
