#Rx
# X(m), Y(m), Z(m), Distance(m), Power (dBm) Phase (deg)
1 688.265 525.253 187.806 160.149 -130.29 -163.212
2 699.029 398.402 187.546 222.153 -133.038 -107.973
3 782.161 527.133 186.726 152.257 -144.62 -102.33
4 749.854 723.695 185.293 217.241 -132.446 133.303
5 758.785 615.285 188.207 156.345 -133.075 106.148
6 772.215 452.27 186.477 181.702 -120.482 -43.1071
7 816.414 412.465 184.284 216.381 -119.036 -35.6434
8 751.863 701.224 186.544 201.793 -130.735 138.833
9 722.528 832.452 149.664 293.7 -250 0
