#Rx
# X(m), Y(m), Z(m), Distance(m), Power (dBm) Phase (deg)
1 673.111 703.842 104.472 172.745 -134.698 146.07
2 682.629 591.675 108.001 96.4701 -120.586 -155.188
3 687.863 529.99 106.661 91.6198 -112.58 -168.961
4 723.466 580.071 106.438 70.6805 -105.88 -148.07
5 753.21 682.959 105.953 138.543 -109.07 114.203
6 755.332 657.201 106.631 116.812 -106.671 -48.4603
7 768.39 627.292 106.733 95.6682 -107.571 -25.7569
8 750.687 706.487 105.197 159.4 -114.263 170.88
9 724.204 824.952 68.5379 267.117 -250 0
10 780.441 660.34 105.453 123.347 -112.361 -131.808
