#Rx
# X(m), Y(m), Z(m), Distance(m), Power (dBm) Phase (deg)
1 685.979 552.199 136.31 111.621 -126.652 78.3935
2 746.079 559.676 134.752 92.2288 -140.167 -163.934
3 695.402 605.382 136.645 116.097 -133.672 31.367
4 664.299 633.434 136.069 144.286 -118.224 159.672
5 815.136 418.182 132.131 181.443 -110.322 -128.735
6 775.445 595.733 135.339 103.724 -126.966 102.192
7 772.002 611.137 135.413 109.177 -118.709 123.417
8 754.74 688.353 134.515 158.156 -112.468 -88.4259
9 729.42 801.621 97.3376 248.315 -250 0
