#Rx
# X(m), Y(m), Z(m), Distance(m), Power (dBm) Phase (deg)
1 698.139 408.887 187.643 214.908 -132.08 -16.2604
2 728.54 541.582 186.49 146.186 -133.357 -54.1669
3 760.665 592.472 187.935 149.713 -134.614 -112.91
4 762.967 564.529 187.462 145.999 -132.379 179.649
5 800.968 481.559 185.894 172.423 -123.897 -168.239
6 792.054 521.438 186.511 156.014 -130.729 148.909
7 785.328 551.522 187.152 150.12 -147.826 -2.31951
8 724.546 823.422 149.804 285.237 -250 0
9 722.785 831.301 149.764 292.649 -250 0
10 715.327 559.337 187.075 147.771 -131.861 -38.7027
