#Rx
# X(m), Y(m), Z(m), Distance(m), Power (dBm) Phase (deg)
1 698.278 407.25 107.129 172.58 -250 0
2 725.809 541.647 106.048 69.1366 -107.143 -150.456
3 760.894 589.691 107.496 72.971 -105.375 -27.2779
4 763.235 561.269 107.017 66.7687 -102.988 -132.678
5 800.425 483.989 105.525 112.734 -112.228 80.0575
6 791.431 524.222 106.148 85.9777 -111.33 30.6052
7 784.745 554.133 106.782 75.2644 -108.738 -80.2989
8 724.237 824.805 69.3977 267.053 -250 0
9 722.658 831.868 69.3577 274.185 -250 0
10 715.247 559.213 106.67 71.1413 -110.756 92.089
