#Rx
# X(m), Y(m), Z(m), Distance(m), Power (dBm) Phase (deg)
1 780.265 528.844 86.7546 64.0404 -118.388 152.834
2 798.843 539.901 86.3413 71.5289 -115.73 -2.48869
3 762.256 573.16 87.565 49.6606 -123.59 12.3048
4 764.121 550.52 87.132 49.0728 -114.118 -24.2801
5 769.118 489.858 86.3769 85.8923 -106.423 51.6017
6 773.183 440.523 86.7169 130.256 -109.817 98.4289
7 811.216 435.719 85.1841 146.693 -112.457 -121.126
8 808.001 450.1 85.4068 133.271 -111.683 -120.164
9 724.87 574.139 87.4521 51.6233 -114.338 -37.4946
10 717.658 562.951 86.8904 52.7297 -113.777 -14.5999
