#Rx
# X(m), Y(m), Z(m), Distance(m), Power (dBm) Phase (deg)
1 675.346 677.507 105.495 150.882 -138.455 61.2312
2 699.211 396.253 105.762 181.663 -150.102 20.7471
3 841.008 474.059 101.514 141.04 -121.292 175.027
4 671.589 626.859 106.82 118.917 -136.244 -36.2051
5 831.146 539.129 102.309 106.112 -120.744 -26.0038
6 773.341 438.604 105.01 139.245 -113.284 -74.1432
7 792.418 519.809 104.879 87.5111 -106.503 -13.2264
8 750.865 705.689 104.695 158.475 -109.448 -37.4119
9 741.202 748.916 101.631 198.005 -112.776 -95.9609
10 717.432 562.601 105.148 68.8819 -103.45 -137.775
