#Rx
# X(m), Y(m), Z(m), Distance(m), Power (dBm) Phase (deg)
1 673.533 698.876 109.05 170.187 -135.134 -25.0052
2 794.18 516.293 109.705 93.5141 -106.792 27.8844
3 758.864 548.145 110.183 69.8843 -102.636 -24.1334
4 724.907 578.771 110.843 73.9244 -103.523 28.9583
5 807.124 454.024 108.808 139.143 -115.756 40.9047
6 803.635 469.628 108.91 126.079 -115.576 147.489
7 785.048 552.777 110.33 78.5789 -106.985 111.417
8 758.4 671.983 110.519 131.595 -107.361 71.739
9 755.38 621.466 111.302 92.7178 -106.723 -141.797
10 715.585 559.737 110.13 74.1335 -112.867 7.18661
