#Rx
# X(m), Y(m), Z(m), Distance(m), Power (dBm) Phase (deg)
1 682.499 593.209 141.875 122.499 -123.683 91.3272
2 687.767 531.121 140.612 117.67 -120.443 82.6519
3 724.553 579.091 140.329 101.933 -128.78 -142.39
4 753.126 683.977 139.83 157.765 -112.205 16.0786
5 755.248 658.222 140.528 139.061 -124.092 130.083
6 768.701 625.902 140.65 120.363 -117.396 -43.4225
7 751.002 705.077 139.136 174.374 -113.92 -43.8617
8 724.372 824.2 102.445 271.772 -250 0
9 781.301 661.675 139.281 144.727 -114.987 89.2481
