#Rx
# X(m), Y(m), Z(m), Distance(m), Power (dBm) Phase (deg)
1 673.388 700.577 96.9903 167.335 -138.74 19.7185
2 687.561 533.556 99.2648 85.639 -109.026 30.2757
3 696.464 428.63 100.137 151.76 -250 0
4 699.062 398.015 98.6475 177.742 -157.136 57.1374
5 659.347 543.236 101.652 106.235 -118.807 -126.431
6 752.415 692.609 98.1809 143.959 -116.93 -98.6248
7 817.493 407.639 95.2938 176.38 -113.198 95.7663
8 803.554 469.99 96.9557 119.905 -114.41 -166.412
9 776.6 590.568 98.795 70.9734 -105.539 0.4198
10 757.216 677.28 98.3371 130.367 -114.74 -39.0692
