#Rx
# X(m), Y(m), Z(m), Distance(m), Power (dBm) Phase (deg)
1 675.257 678.554 87.18 145.099 -138.719 28.2529
2 699.208 396.293 87.5085 176.106 -152.315 -45.9804
3 841.952 473.208 83.1954 135.624 -122.338 -136.681
4 672.256 626.257 88.5728 109.31 -130.307 51.4947
5 832.312 539.101 83.9747 98.0037 -126.137 89.6089
6 773.32 438.858 86.7509 131.825 -109.949 95.8472
7 792.724 518.441 86.6048 76.5078 -114.585 27.4548
8 751.199 704.194 86.4757 150.834 -120.297 -93.5786
9 741.503 747.566 83.481 192.039 -111.628 55.7681
10 717.676 562.98 86.8916 52.7224 -120.748 31.3574
