#Rx
# X(m), Y(m), Z(m), Distance(m), Power (dBm) Phase (deg)
1 697.124 420.845 88.4468 154.473 -250 0
2 698.597 403.486 87.4 169.581 -250 0
3 823.455 489.891 84.4765 112.582 -113.38 -7.14061
4 660.411 636.94 88.5976 123.968 -143.09 -111.743
5 745.631 541.173 86.5736 47.906 -109.849 -1.6818
6 660.235 543.215 90.2287 99.5646 -119.072 159.536
7 756.899 638.178 87.9006 91.0473 -106.008 13.5823
8 773.273 439.427 86.7393 131.288 -108.129 -147.187
9 808.435 448.16 85.5167 135.11 -110.762 151.268
10 722.655 831.883 49.664 272.977 -250 0
