#Rx
# X(m), Y(m), Z(m), Distance(m), Power (dBm) Phase (deg)
1 682.548 592.633 97.6611 90.1736 -126.771 151.217
2 683.89 576.82 97.8621 84.8704 -120.627 153.249
3 688.976 516.878 96.1406 89.3646 -131.393 63.2407
4 659.882 543.224 98.5681 104.109 -120.819 -160.915
5 754.189 671.083 95.737 123.443 -114.53 91.3717
6 755.452 655.75 96.1859 110.168 -114.552 -6.48717
7 760.524 594.182 96.1303 65.2151 -104.601 -125.351
8 772.69 446.504 95.0494 127.878 -110.406 149.346
9 799.832 486.644 94.2872 104.682 -107.398 82.5937
10 779.218 578.854 95.8461 65.5915 -107.999 157.294
