#Rx
# X(m), Y(m), Z(m), Distance(m), Power (dBm) Phase (deg)
1 688.787 519.097 137.891 118.496 -117.803 -111.928
2 790.808 519.335 136.598 111.854 -136.654 -142.914
3 670.95 627.435 138.56 139.294 -127.744 -38.1643
4 742.961 541.237 136.539 95.9172 -143.821 26.1494
5 762.784 566.753 137.489 96.673 -127.43 -49.161
6 765.258 536.712 136.701 98.9072 -137.386 -142.994
7 825.437 372.103 132.11 222.803 -114.815 14.5331
8 786.99 544.088 136.909 104.125 -115.392 -29.4014
9 773.729 603.408 137.732 108.249 -122.646 70.4077
10 787.423 671.171 136.038 151.063 -114.133 -80.2219
