#Rx
# X(m), Y(m), Z(m), Distance(m), Power (dBm) Phase (deg)
1 674.611 686.172 86.6935 151.548 -127.752 -75.8714
2 691.226 490.358 88.2419 99.7014 -117.236 -108.917
3 795.423 515.172 86.2778 79.7912 -116.727 -2.53947
4 731.841 572.517 87.4963 48.7822 -113.742 171.022
5 660.754 543.203 90.3324 99.17 -133.988 170.583
6 659.2 543.24 90.4114 100.541 -125.204 156.785
7 748.504 740.086 83.8352 184.781 -106.799 117.502
8 751.783 700.279 86.5781 147.148 -110.38 -118.396
9 827.798 361.541 81.172 218.107 -120.66 -101.189
10 810.487 438.978 85.2346 143.628 -109.594 39.467
