#Rx
# X(m), Y(m), Z(m), Distance(m), Power (dBm) Phase (deg)
1 693.695 461.264 142.669 150.045 -139.084 -143.209
2 696.222 431.478 143.208 170.684 -127.211 -170.744
3 728.283 575.726 141.561 101.831 -123.574 6.74831
4 749.86 723.629 139.169 190.078 -117.628 -0.362053
5 756.9 638.177 141.871 126.887 -118.31 -97.5478
6 768.305 499.733 140.336 117.034 -121.725 173.467
7 771.583 459.941 140.382 142.276 -114.64 -101.979
8 773.403 437.853 140.742 159.115 -113.866 -127.89
9 804.622 465.215 139.711 147.872 -113.955 161.167
10 723.242 571.614 141.358 102.084 -135.797 153.28
