#Rx
# X(m), Y(m), Z(m), Distance(m), Power (dBm) Phase (deg)
1 682.771 589.997 112.522 98.9819 -122.63 7.84648
2 695.759 436.933 112.198 150.08 -141.972 -30.7934
3 697.545 415.881 111.115 166.802 -250 0
4 780.278 540.345 110.08 78.2636 -103.734 133.646
5 761.696 579.957 110.864 72.9046 -106.854 66.4044
6 762.719 567.539 110.616 70.5193 -105.699 -59.0581
7 763.918 552.988 110.467 70.6155 -104.236 -146.168
8 737.082 767.344 105.177 216.787 -121.877 148.415
9 723.177 829.549 72.7822 272.2 -250 0
10 715.666 559.862 110.046 74.0236 -104.13 76.351
