#Rx
# X(m), Y(m), Z(m), Distance(m), Power (dBm) Phase (deg)
1 682.426 594.072 139.315 120.711 -133.325 -36.8391
2 683.768 578.256 139.516 116.678 -129.145 -174.302
3 688.861 518.235 137.805 118.692 -124.345 111.966
4 659.969 543.222 140.247 131.273 -137.854 75.2724
5 754.097 672.199 137.39 147.153 -112.715 -164.577
6 755.359 656.877 137.86 136.242 -117.969 -86.1619
7 760.426 595.368 137.83 102.676 -123.307 47.3679
8 772.63 447.228 136.72 149.331 -112.197 -178.036
9 800.103 485.428 135.954 131.215 -112.745 97.4191
10 779.61 577.103 137.507 102.196 -129.994 19.7491
