#Rx
# X(m), Y(m), Z(m), Distance(m), Power (dBm) Phase (deg)
1 697.01 422.196 188.542 206.668 -127.78 11.31
2 698.544 404.117 187.399 218.038 -137.845 -4.97756
3 824.462 488.983 184.407 177.004 -123.437 49.8857
4 660.499 636.861 188.598 185.893 -139.17 -75.7571
5 747.001 541.141 186.591 145.301 -134.576 160.639
6 660.409 543.211 190.216 171.525 -123.14 34.177
7 756.802 639.363 187.889 165.971 -127.307 58.9705
8 773.245 439.762 186.732 189.725 -119.477 143.316
9 808.729 446.84 185.496 192.825 -117.18 -15.0503
10 722.699 831.685 149.664 292.976 -250 0
