#Rx
# X(m), Y(m), Z(m), Distance(m), Power (dBm) Phase (deg)
1 694.109 456.376 138.67 150.581 -119.657 98.4205
2 696.532 427.825 138.875 170.883 -142.159 -19.4689
3 725.394 578.332 137.531 98.9291 -126.012 -27.7013
4 750.217 719.291 135.453 184.465 -115.404 159.694
5 757.236 634.097 137.835 121.248 -115.54 -65.1054
6 768.639 495.672 136.266 115.924 -128.383 -66.1998
7 771.844 456.775 136.31 141.842 -115.604 -104.909
8 773.424 437.59 136.672 156.845 -117.582 56.3253
9 803.753 469.104 135.697 142.403 -112.485 137.585
10 721.845 569.447 137.194 98.1591 -129.199 96.1815
