#Rx
# X(m), Y(m), Z(m), Distance(m), Power (dBm) Phase (deg)
1 673.648 697.518 104.679 167.36 -149.151 -77.3964
2 793.264 517.12 105.318 89.5305 -105.471 -127.475
3 757.913 549.003 105.747 65.2694 -109.917 -62.065
4 723.797 579.772 106.41 70.4654 -105.061 -153.513
5 806.831 455.334 104.378 135.946 -108.706 42.7293
6 803.342 470.941 104.48 122.712 -110.841 -92.6799
7 784.768 554.03 105.897 74.5307 -104.012 -131.048
8 758.132 673.181 106.041 130.351 -113.253 30.0067
9 754.609 620.269 106.876 88.5873 -107.699 -162.222
10 715.569 559.712 105.68 70.1062 -103.247 165.089
