#Rx
# X(m), Y(m), Z(m), Distance(m), Power (dBm) Phase (deg)
1 698.361 406.268 83.3252 166.035 -250 0
2 699.194 396.45 83.3368 174.943 -147.202 -176.767
3 661.255 636.18 84.5342 121.45 -129.52 -108.807
4 675.198 542.857 85.1093 84.3821 -115.633 130.444
5 666.245 543.072 85.7363 92.2756 -116.15 -136.147
6 758.647 616.962 84.0157 71.5973 -112.12 -36.7652
7 816.174 413.538 80.1633 166.711 -139.81 4.32316
8 793.886 513.241 82.3128 77.8628 -112.804 143.35
9 802.499 694.557 79.6996 150.598 -250 0
10 727.268 577.859 83.4341 48.4097 -108.643 47.6836
