#Rx
# X(m), Y(m), Z(m), Distance(m), Power (dBm) Phase (deg)
1 699.009 398.639 139.716 194.144 -148.938 -37.6585
2 735.645 569.087 139.649 98.0973 -135.285 77.8545
3 710.263 591.979 140.792 109.345 -123.951 -158.845
4 821.913 539.349 137.008 122.949 -113.651 55.6427
5 750.181 719.736 137.831 186.055 -111.952 62.7143
6 815.509 416.512 136.688 185.168 -122.364 -139.627
7 752.066 700.316 138.976 170.377 -119.467 -42.8001
8 738.677 760.21 134.819 220.581 -120.055 -97.1888
9 787.689 671.584 138.465 152.95 -113.834 -26.1798
