#Rx
# X(m), Y(m), Z(m), Distance(m), Power (dBm) Phase (deg)
1 675.257 678.554 87.0393 145.056 -136.566 31.8285
2 699.208 396.293 87.3679 176.07 -148.925 45.0109
3 841.952 473.208 83.0548 135.582 -121.475 -157.951
4 672.256 626.257 88.4321 109.251 -138.069 -145.964
5 832.312 539.101 83.8341 97.9443 -130.45 26.1637
6 773.32 438.858 86.6103 131.778 -115.229 -127.548
7 792.724 518.441 86.4642 76.4268 -122.159 -121.509
8 751.199 704.194 86.3351 150.793 -114.115 -52.1703
9 741.503 747.566 83.3404 192.009 -113.408 52.594
10 717.676 562.98 86.751 52.6041 -113.196 -32.3166
