#Rx
# X(m), Y(m), Z(m), Distance(m), Power (dBm) Phase (deg)
1 683.058 586.615 139.476 118.616 -125.911 -13.6532
2 696.126 432.612 139.148 167.485 -121.17 -98.8747
3 697.796 412.929 137.788 181.739 -131.675 165.837
4 776.509 540.435 136.977 101.169 -120.981 -129.573
5 761.948 576.901 137.71 97.9814 -135.913 -76.6346
6 762.974 564.438 137.461 96.5451 -131.048 102.857
7 764.178 549.826 137.25 96.9903 -128.665 16.0151
8 736.152 771.504 131.739 229.761 -113.215 -39.5049
9 722.936 830.624 99.664 277.551 -250 0
10 715.569 559.712 136.93 99.19 -126.428 -25.8617
