#Rx
# X(m), Y(m), Z(m), Distance(m), Power (dBm) Phase (deg)
1 693.695 461.264 96.1571 123.94 -138.312 71.6763
2 696.222 431.478 96.696 148.089 -250 0
3 728.283 575.726 95.0497 57.621 -106.563 24.0524
4 749.86 723.629 92.6571 171.18 -112.662 118.376
5 756.9 638.177 95.3596 94.9847 -107.413 -83.607
6 768.305 499.733 93.8245 82.2279 -104.989 -131.346
7 771.583 459.941 93.87 115.338 -111.177 -7.69844
8 773.403 437.853 94.2304 135.441 -113.743 57.2643
9 804.622 465.215 93.1997 122.429 -108.459 130.332
10 723.242 571.614 94.8469 58.2283 -104.437 -179.835
