#Rx
# X(m), Y(m), Z(m), Distance(m), Power (dBm) Phase (deg)
1 778.969 530.013 84.5303 61.2431 -100.435 -36.9471
2 752.941 553.487 84.929 43.4606 -102.868 53.3039
3 740.604 564.614 84.9779 43.044 -100.2 172.473
4 664.639 633.127 86.3546 117.848 -131.773 -24.7809
5 734.892 541.43 84.149 46.9138 -105.057 -135.776
6 766.854 517.342 84.0614 63.0871 -102.072 -116.566
7 772.73 446.016 84.3206 124.313 -112.518 57.6319
8 759.385 667.578 85.1757 116.496 -109.16 72.5813
9 796.826 500.091 83.9967 88.8391 -110.388 2.6413
10 715.39 559.435 84.7893 52.1886 -116.263 -98.1
