#Rx
# X(m), Y(m), Z(m), Distance(m), Power (dBm) Phase (deg)
1 687.945 529.03 137.951 115.914 -121.232 -140.604
2 698.923 399.648 137.545 192.245 -141.16 -60.6934
3 785.157 524.431 136.699 108.016 -122.545 -170.542
4 749.49 728.116 134.927 191.869 -118.136 150.825
5 758.491 618.861 138.227 113.047 -120.287 -142.469
6 771.985 455.059 136.42 143.194 -116.594 83.1807
7 817.298 408.511 134.094 190.834 -114.088 -175.204
8 752.817 696.957 136.643 166.319 -108.126 106.813
9 722.585 832.196 99.664 279.113 -250 0
