#Rx
# X(m), Y(m), Z(m), Distance(m), Power (dBm) Phase (deg)
1 679.451 629.127 106.786 115.486 -128.299 169.962
2 685.577 556.931 107.301 88.6367 -118.424 52.5473
3 827.583 486.167 102.434 125.285 -120.114 87.5223
4 753.105 540.995 104.915 65.608 -102.088 16.2137
5 669.978 542.982 107.89 101.695 -118.318 -0.235142
6 756.81 639.268 106.134 102.208 -107.755 -162.327
7 759.406 607.755 106.221 80.7318 -112.892 58.4524
8 768.582 496.366 104.613 91.7296 -106.013 179.783
9 725.346 819.843 67.9079 261.895 -250 0
10 801.613 693.182 102.306 156.218 -132.392 -153.241
