#Rx
# X(m), Y(m), Z(m), Distance(m), Power (dBm) Phase (deg)
1 682.963 587.743 88.1385 82.6081 -126.863 -105.827
2 696.006 434.023 87.812 142.901 -250 0
3 697.715 413.884 86.5422 160.059 -250 0
4 777.767 540.405 85.6804 57.0578 -101.924 -18.5006
5 761.864 577.919 86.4084 49.9864 -110.742 -162.289
6 762.889 565.476 86.16 47.1101 -102.105 155.556
7 764.091 550.88 85.9698 47.9378 -104.518 -111.227
8 736.462 770.117 80.5322 213.74 -115.61 -123.697
9 723.01 830.293 48.3506 271.332 -250 0
10 715.586 559.737 85.6162 52.7454 -112.325 -68.2077
