#Rx
# X(m), Y(m), Z(m), Distance(m), Power (dBm) Phase (deg)
1 699.037 398.307 90.2479 175.008 -150.547 -160.436
2 734.735 569.907 90.1937 49.9748 -103.722 -0.712363
3 709.434 592.727 91.4044 69.2636 -141.489 -36.3745
4 820.457 539.384 87.6406 89.4673 -123.949 82.0515
5 748.499 740.142 86.8124 185.523 -112.743 -71.8474
6 750.3 718.291 88.4821 164.884 -111.021 -107.214
7 815.192 417.933 87.2869 164.239 -121.932 -14.6096
8 751.777 701.607 89.4772 149.3 -110.619 -156.866
9 738.391 761.491 85.2513 206.112 -127.329 126.554
10 787.025 670.554 89.0568 126.77 -126.118 113.651
