#Rx
# X(m), Y(m), Z(m), Distance(m), Power (dBm) Phase (deg)
1 693.695 461.264 111.703 131.417 -134.81 122.352
2 696.222 431.478 112.242 154.456 -250 0
3 728.283 575.726 110.596 72.0766 -109.391 -4.54192
4 749.86 723.629 108.203 176.361 -110.81 37.6342
5 756.9 638.177 110.906 104.435 -113.997 -38.2563
6 768.305 499.733 109.371 92.7264 -111.271 -70.3202
7 771.583 459.941 109.416 123.049 -112.068 100.797
8 773.403 437.853 109.777 142.105 -112.326 53.4862
9 804.622 465.215 108.746 129.639 -119.239 -26.0203
10 723.242 571.614 110.393 72.5196 -104.437 119.909
