#Rx
# X(m), Y(m), Z(m), Distance(m), Power (dBm) Phase (deg)
1 677.402 653.28 188.281 186.151 -136.408 17.9771
2 699.029 398.399 187.546 222.155 -135.744 114.245
3 743.823 541.217 186.69 145.401 -136.995 97.2888
4 727.126 541.616 186.472 146.339 -133.092 -133.676
5 767.98 503.68 186.361 156.027 -133.888 -20.3311
6 770.739 470.186 186.539 171.52 -121.331 42.1223
7 773.412 437.737 186.774 191.07 -121.579 61.5781
8 758.983 669.373 187.278 181.893 -125.739 116.095
9 724.787 822.347 149.804 284.227 -250 0
10 800.404 691.307 184.257 200.723 -117.98 -140.604
