#Rx
# X(m), Y(m), Z(m), Distance(m), Power (dBm) Phase (deg)
1 679.676 626.475 188.71 173.748 -140.091 -140.356
2 690.93 493.844 188.327 169.316 -124.474 153.914
3 749.55 727.385 184.887 219.767 -136.569 -114.597
4 750.941 710.499 186.423 208.282 -117.693 166.965
5 765.909 528.812 186.455 148.611 -131.749 158.772
6 769.916 480.179 186.528 166.375 -122.862 94.9141
7 807.861 450.725 185.516 190.302 -121.287 -15.6765
8 768.438 627.077 187.96 161.724 -123.283 109.185
9 729.793 799.949 149.764 263.323 -250 0
10 715.569 559.712 186.93 147.578 -134.656 -176.33
