#Rx
# X(m), Y(m), Z(m), Distance(m), Power (dBm) Phase (deg)
1 688.052 527.77 87.9027 80.3496 -127.648 -62.2037
2 698.961 399.205 87.5451 173.478 -149.347 -153.802
3 784.158 525.333 86.6949 67.8896 -105.629 96.7057
4 749.612 726.64 85.0488 172.019 -106.739 121.453
5 758.589 617.668 88.2356 74.6569 -105.104 163.169
6 772.064 454.101 86.4396 117.569 -108.307 90.706
7 817.004 409.827 84.1575 171.25 -126.84 63.6929
8 752.499 698.381 86.6098 145.379 -109.635 -160.589
9 722.559 832.31 49.664 273.41 -250 0
