#Rx
# X(m), Y(m), Z(m), Distance(m), Power (dBm) Phase (deg)
1 699.062 398.004 109.398 181.433 -149.797 124.786
2 733.824 570.729 109.357 68.7755 -108.788 -22.4773
3 708.604 593.475 110.635 84.6061 -123.797 -149.575
4 819.001 539.419 106.891 99.4781 -134.915 39.1451
5 748.621 738.662 106.084 189.65 -111.603 -143.349
6 750.419 716.847 107.751 169.927 -116.677 111.689
7 814.873 419.358 106.504 169.167 -114.269 149.676
8 751.489 702.896 108.597 157.528 -109.452 146.861
9 738.105 762.767 104.302 212.116 -113.355 -141.424
10 786.359 669.52 108.267 133.962 -119.686 148.758
