#Rx
# X(m), Y(m), Z(m), Distance(m), Power (dBm) Phase (deg)
1 686.039 613.826 100.601 99.3253 -130.981 -87.8949
2 661.8 543.178 102.01 104.457 -120.166 87.6946
3 755.259 658.089 99.5998 113.864 -110.095 90.2789
4 773.149 440.93 98.4597 134.327 -111.63 114.145
5 773.412 437.736 98.5249 137.245 -110.689 60.5506
6 804.317 466.578 97.413 123.05 -108.461 -8.95511
7 782.714 563.216 98.9256 67.3756 -106.865 56.2255
8 779.446 577.837 99.1285 68.1242 -103.069 129.523
9 744.844 732.624 96.382 180.835 -109.654 104.099
10 733.793 587.981 99.6745 64.7934 -117.062 54.1386
