#Rx
# X(m), Y(m), Z(m), Distance(m), Power (dBm) Phase (deg)
1 688.286 525.003 96.6973 86.5475 -120.352 -89.9565
2 749.1 732.858 93.4326 180.225 -114.53 160.499
3 750.453 716.426 94.6535 164.944 -109.657 -87.5997
4 828.408 358.81 89.8243 222.499 -132.984 111.712
5 823.454 380.974 91.4994 201.117 -132.086 101.221
6 814.779 419.778 93.5321 164.301 -111.456 178.877
7 752.452 698.589 95.6037 148.547 -108.354 -178.122
8 747.074 722.649 94.3572 170.712 -111.853 -53.5236
9 735.857 772.825 90.396 218.379 -122.004 57.9582
10 765.997 637.935 96.776 97.0413 -111.312 18.6934
