#Rx
# X(m), Y(m), Z(m), Distance(m), Power (dBm) Phase (deg)
1 682.963 587.743 89.4519 83.3405 -131.805 -175.9
2 696.006 434.023 89.1254 143.322 -250 0
3 697.715 413.884 87.8556 160.425 -250 0
4 777.767 540.405 86.9938 58.0576 -106.137 -97.2005
5 761.864 577.919 87.7218 51.1434 -123.781 46.635
6 762.889 565.476 87.4734 48.3292 -111.611 101.214
7 764.091 550.88 87.2832 49.1313 -117.296 -107.171
8 736.462 770.117 81.8456 213.978 -115.514 37.8474
9 723.01 830.293 49.664 271.363 -250 0
10 715.586 559.737 86.9296 53.8238 -115.021 -70.6266
