#Rx
# X(m), Y(m), Z(m), Distance(m), Power (dBm) Phase (deg)
1 699.179 396.628 110.654 183.097 -148.492 -167.988
2 747.654 558.256 110.4 67.9186 -104.165 164.792
3 757.767 540.883 109.978 71.0914 -101.088 130.69
4 759.343 608.514 111.372 85.2748 -106.042 -116.85
5 749.669 711.039 109.638 165.319 -112.3 158.692
6 810.694 438.054 108.606 153.046 -114.271 -46.6185
7 780.157 574.656 110.679 77.6313 -101.378 -30.9281
8 719.065 565.134 110.226 73.0446 -106.387 87.879
9 716.605 561.319 110.256 73.8473 -101.755 122.248
10 715.569 559.712 110.176 74.1815 -105.537 -97.6819
