#Rx
# X(m), Y(m), Z(m), Distance(m), Power (dBm) Phase (deg)
1 698.164 408.596 111.896 173.275 -250 0
2 699.179 396.627 111.822 183.535 -146.492 -96.6939
3 661.951 635.551 113.026 133.202 -124.16 118.655
4 678.064 542.789 113.394 99.6699 -126.159 -6.23661
5 668.14 543.026 114.089 107.107 -114.35 -61.9041
6 758.31 621.055 112.479 93.6647 -111.363 -40.3377
7 816.95 410.067 108.483 178.506 -138.373 -179.565
8 794.89 508.748 110.729 98.3305 -112.179 -24.8983
9 729.097 580.696 112.036 74.472 -107.678 152.093
