#Rx
# X(m), Y(m), Z(m), Distance(m), Power (dBm) Phase (deg)
1 685.864 553.555 188.788 158.276 -129.418 -113.954
2 747.118 558.739 187.162 144.649 -130.061 -117.567
3 696.317 604.556 189.089 161.044 -128.684 -169.966
4 664.686 633.085 188.499 182.379 -131.059 -87.2675
5 815.462 416.725 184.487 213.322 -124.85 52.3537
6 775.738 594.424 187.748 152.182 -142.048 167.86
7 772.294 609.829 187.821 155.839 -138.897 146.197
8 755.021 687.099 186.97 192.614 -124.488 15.5845
9 729.689 800.418 149.764 263.756 -250 0
