#Rx
# X(m), Y(m), Z(m), Distance(m), Power (dBm) Phase (deg)
1 673.752 696.298 87.4202 160.663 -134.019 48.8251
2 687.918 529.344 89.283 80.6209 -114.515 -119.887
3 696.784 424.859 90.0502 151.473 -250 0
4 699.126 397.257 88.8275 175.575 -148.067 -43.0648
5 659.17 543.241 91.8316 101.25 -117.447 -40.1149
6 752.742 688.647 88.4746 136.773 -109.46 -166.623
7 816.629 411.504 85.6578 170 -131.973 125.465
8 802.697 473.824 87.1942 112.411 -104.679 -29.9885
9 775.54 595.31 89.04 65.4461 -100.602 -118.469
10 756.194 681.852 88.4109 130.604 -121.846 -143.554
