#Rx
# X(m), Y(m), Z(m), Distance(m), Power (dBm) Phase (deg)
1 689.252 513.619 114.387 102.645 -122.035 125.889
2 786.158 523.529 113.023 88.9554 -106.447 -71.6045
3 668.547 629.602 114.947 126.841 -128.76 -139.718
4 738.089 541.354 112.885 73.2192 -103.553 96.3758
5 763.251 561.073 113.831 73.3728 -108.681 -146.316
6 765.7 531.349 112.944 78.537 -104.453 -138.748
7 824.213 377.578 108.934 209.297 -116.426 1.84651
8 785.651 550.077 113.403 81.82 -105.86 140.679
9 772.524 608.801 114.217 90.6919 -108.31 54.9177
10 784.531 666.685 112.714 133.391 -112.678 -101.836
