#Rx
# X(m), Y(m), Z(m), Distance(m), Power (dBm) Phase (deg)
1 689.826 506.859 109.151 102.072 -125.178 -105.457
2 695.152 444.09 110.275 143.565 -142.224 -123.786
3 749.693 725.653 106.338 177.558 -116.306 154.726
4 778.115 583.79 108.728 77.3327 -108.394 -75.1601
5 811.214 435.724 106.452 154.221 -114.536 100.74
6 791.95 678.193 106.646 142.101 -134.122 -102.335
7 783.872 665.662 107.632 129.761 -112.052 -178.032
8 769.999 644.143 108.805 109.769 -111.579 12.9376
9 717.676 562.98 108.06 71.4569 -104.779 23.1598
10 715.247 559.213 108.244 72.5639 -106.584 159.433
