#Rx
# X(m), Y(m), Z(m), Distance(m), Power (dBm) Phase (deg)
1 687.989 528.508 87.9709 80.1406 -116.861 168.71
2 748.756 737.031 84.2282 181.898 -111.676 -117.68
3 750.103 720.678 85.4426 166.362 -108.19 -42.6162
4 824.387 376.801 82.3253 203.201 -129.521 -44.0482
5 815.654 415.865 84.4862 165.491 -126.605 109.533
6 753.323 694.693 86.8348 141.983 -106.345 134.511
7 747.866 719.105 85.7711 164.889 -105.233 -105.307
8 736.604 769.485 81.7943 213.341 -109.922 147.599
9 767.807 640.743 87.8619 95.1345 -104.269 -80.2619
