#Rx
# X(m), Y(m), Z(m), Distance(m), Power (dBm) Phase (deg)
1 682.109 597.806 89.0949 87.637 -130.752 -77.0477
2 687.479 534.516 88.0605 78.4076 -115.979 164.76
3 727.814 576.15 87.5979 51.2176 -110.162 4.50065
4 752.874 687.038 87.061 134.794 -108.897 -26.5836
5 754.996 661.285 87.8179 111.316 -109.693 91.1454
6 769.631 621.743 88.0015 80.2421 -108.262 82.3577
7 751.946 700.851 86.5528 147.692 -109.161 -123.591
8 724.923 821.737 49.764 262.684 -250 0
9 783.881 665.676 86.3634 120.517 -127.109 174.813
