#Rx
# X(m), Y(m), Z(m), Distance(m), Power (dBm) Phase (deg)
1 688.088 527.34 100.718 88.3577 -116.063 -50.6655
2 748.87 735.641 97.135 183.958 -119.63 101.44
3 750.22 719.261 98.3516 168.815 -118.04 -178.933
4 824.076 378.191 95.222 204.762 -134.347 57.8338
5 815.362 417.17 97.3403 167.977 -115.282 -138.285
6 753.032 695.993 99.5965 147.651 -113.315 -154.672
7 747.601 720.288 98.4719 169.779 -122.412 -170.096
8 736.355 770.597 94.5004 217.131 -113.454 -107.001
9 767.205 639.809 100.672 100.997 -105.49 34.7151
