#Rx
# X(m), Y(m), Z(m), Distance(m), Power (dBm) Phase (deg)
1 679.589 627.497 138.559 134.867 -128.498 -134.001
2 685.681 555.711 139.011 113.871 -130.645 -89.2876
3 826.617 487.038 134.257 142.259 -115.442 83.1762
4 751.805 541.026 136.654 96.1994 -127.814 58.7283
5 669.123 543.003 139.706 125.074 -130.401 17.4429
6 756.921 637.916 137.903 123.642 -125.406 -77.8777
7 759.526 606.294 137.96 106.931 -115.861 14.9185
8 768.698 494.961 136.371 116.416 -118.545 94.0979
9 725.165 820.652 99.664 267.654 -250 0
10 800.823 691.957 134.189 169.767 -114.349 8.80289
