#Rx
# X(m), Y(m), Z(m), Distance(m), Power (dBm) Phase (deg)
1 680.405 617.891 86.9934 98.1411 -135.998 3.16152
2 695.06 445.178 87.381 133.384 -143.752 3.26358
3 803.496 539.79 84.3483 73.9161 -116.134 -89.0514
4 764.14 550.283 85.4551 47.6089 -100.521 175.824
5 748.786 736.659 82.5895 181.167 -110.487 -25.1574
6 755.706 652.658 86.2315 102.909 -107.26 114.296
7 826.958 365.296 79.8863 214.149 -124.796 9.13386
8 789.913 531.015 85.1545 67.7189 -125.882 69.4864
9 788.372 672.642 84.282 127.387 -124.813 -62.3118
10 746.886 608.29 86.4871 65.3107 -101.88 -153.359
