#Rx
# X(m), Y(m), Z(m), Distance(m), Power (dBm) Phase (deg)
1 684.765 566.502 189.383 159.247 -135.368 105.573
2 688.142 526.709 187.762 159.844 -123.573 -79.5488
3 692.07 480.413 188.398 174.705 -126.25 152.878
4 742.918 562.527 187.367 144.898 -137.967 2.10315
5 721.782 541.744 186.362 147.001 -132.113 52.9543
6 673.784 542.891 189.28 164.454 -124.865 -101.668
7 763.24 561.214 187.423 145.926 -136.21 74.5814
8 772.791 445.274 186.76 186.236 -124.2 -38.2808
9 773.242 439.797 186.732 189.702 -122.49 26.6463
10 749.02 713.943 186.068 210.506 -127.893 32.8837
