#Rx
# X(m), Y(m), Z(m), Distance(m), Power (dBm) Phase (deg)
1 673.648 697.518 135.929 181.302 -130.789 -122.055
2 793.264 517.12 136.567 113.652 -116.317 148.028
3 757.913 549.003 136.997 95.8544 -126.929 -106.13
4 723.797 579.772 137.659 99.6733 -129.405 32.3014
5 806.831 455.334 135.628 152.721 -116.944 -47.378
6 803.342 470.941 135.729 141.092 -114.656 -55.3337
7 784.768 554.03 137.147 102.431 -123.584 -52.9753
8 758.132 673.181 137.291 148.114 -116.368 56.9831
9 754.609 620.269 138.125 113.341 -121.867 -129.737
10 715.569 559.712 136.93 99.19 -126.428 -25.8617
