#Rx
# X(m), Y(m), Z(m), Distance(m), Power (dBm) Phase (deg)
1 675.169 679.598 132.114 165.37 -137.56 -126.801
2 699.201 396.371 132.504 192.512 -148.995 -95.41
3 842.896 472.357 128.125 156.198 -121.445 53.3299
4 672.942 625.639 133.575 133.926 -125.293 1.91405
5 833.477 539.073 128.889 124.696 -121.269 31.6769
6 773.297 439.136 131.74 152.686 -115.456 -67.7086
7 793.029 517.076 131.579 109.476 -116.473 -150.896
8 751.533 702.699 131.505 168.26 -118.379 -91.7748
9 741.805 746.218 128.58 205.184 -113.623 116.798
10 717.936 563.383 131.903 93.7432 -122.133 62.5919
