#Rx
# X(m), Y(m), Z(m), Distance(m), Power (dBm) Phase (deg)
1 674.262 690.279 86.4528 155.076 -121.177 -32.8825
2 690.86 494.671 88.1742 96.9135 -116.818 -111.155
3 798.59 512.316 86.0585 83.2755 -114.552 -22.2303
4 734.588 570.04 87.4542 47.4319 -119.324 35.3385
5 661.757 543.179 90.2621 98.2791 -116.45 -97.3685
6 659.463 543.234 90.4116 100.314 -129.972 -36.0165
7 751.452 704.304 86.4617 150.943 -121.032 173.633
8 811.391 434.933 85.172 147.433 -116.608 52.7475
