#Rx
# X(m), Y(m), Z(m), Distance(m), Power (dBm) Phase (deg)
1 677.78 648.828 38.8614 112.062 -250 0
2 691.25 490.076 38.9183 88.8816 -250 0
3 670.461 542.971 40.0446 77.4745 -250 0
4 772.943 443.432 37.3295 119.754 -103.76 1.48108
5 756.514 642.862 38.5275 83.6221 -100.975 -144.028
6 758.611 617.4 38.6244 58.8978 -101.777 158.999
7 767.797 505.901 36.8906 58.5958 -97.4504 -6.46986
8 781.628 662.182 37.242 108.344 -141.211 -174.221
9 770.668 645.181 38.1073 88.7907 -250 0
10 717.657 562.95 37.5623 28.9252 -250 0
