#Rx
# X(m), Y(m), Z(m), Distance(m), Power (dBm) Phase (deg)
1 802.527 670.46 36.4817 124.231 -128.075 61.3439
2 732.299 673.667 39.7848 114.522 -106.279 103.674
3 777.847 413.36 38.6434 150.108 -108.822 -80.7661
4 757.802 545.07 38.7942 19.3927 -85.1902 -144.326
5 759.189 429.302 39.0147 131.408 -106.148 -147.451
6 759.567 472.598 38.1706 88.5562 -118.396 151.687
7 670.611 670.856 39.1234 134.105 -141.733 -12.9343
8 755.631 676.88 40.7109 117.291 -106.456 111.817
9 752.577 666.969 39.5484 107.213 -97.1807 -154.901
