#Rx
# X(m), Y(m), Z(m), Distance(m), Power (dBm) Phase (deg)
1 682.676 591.126 136.979 117.901 -124.643 56.2325
2 695.632 438.432 136.656 161.792 -121.967 -74.2574
3 697.457 416.921 135.67 177.494 -135.626 141.006
4 781.532 540.315 134.544 100.587 -112.143 67.618
5 761.612 580.976 135.358 96.4466 -128.822 95.401
6 762.634 568.574 135.11 94.4587 -126.785 161.565
7 763.831 554.037 134.981 94.3501 -123.099 -8.83431
8 737.393 765.954 129.766 223.835 -113.235 111.978
9 723.269 829.137 97.2636 275.587 -250 0
10 715.729 559.961 134.527 96.8548 -125.015 153.498
