#Rx
# X(m), Y(m), Z(m), Distance(m), Power (dBm) Phase (deg)
1 679.281 631.13 88.6602 107.886 -132.561 141.033
2 690.443 499.581 88.2372 93.9509 -116.975 8.6437
3 749.143 732.327 84.4778 177.389 -109.41 21.2095
4 750.531 715.479 86.0132 161.51 -112.253 92.1267
5 765.561 533.035 86.5864 55.2383 -106.578 81.1316
6 769.497 485.264 86.5221 89.852 -107.782 133.709
7 808.974 445.747 85.4394 137.336 -105.908 -32.5781
8 769.552 622.094 87.9988 80.4885 -111.776 18.1604
9 730.939 794.827 79.7592 238.237 -115.392 36.1061
10 715.731 559.963 86.9268 53.7388 -116.797 161.567
