#Rx
# X(m), Y(m), Z(m), Distance(m), Power (dBm) Phase (deg)
1 682.109 597.806 189.095 164.3 -126.002 -114.512
2 687.479 534.516 188.061 158.919 -124.809 -3.46151
3 727.814 576.15 187.598 147.099 -137.05 -161.94
4 752.874 687.038 187.061 192.554 -123.155 -5.37252
5 754.996 661.285 187.818 177.342 -119.725 -172.542
6 769.631 621.743 188.001 159.795 -129.023 -162.006
7 751.946 700.851 186.553 201.541 -126.614 -71.5934
8 724.923 821.737 149.764 283.639 -250 0
9 783.881 665.676 186.363 182.462 -122.166 -127.292
