#Rx
# X(m), Y(m), Z(m), Distance(m), Power (dBm) Phase (deg)
1 684.765 566.502 139.383 114.777 -122.745 146.426
2 688.142 526.709 137.762 116.303 -120.727 122.983
3 692.07 480.413 138.398 135.774 -127.128 -15.5539
4 742.918 562.527 137.367 94.9267 -124.294 -155.185
5 721.782 541.744 136.362 98.6174 -130.664 -130.93
6 673.784 542.891 139.28 121.941 -120.002 -93.0977
7 763.24 561.214 137.423 96.4599 -120.439 121.359
8 772.791 445.274 136.76 150.865 -115.77 106.954
9 773.242 439.797 136.732 155.132 -114.508 29.0958
10 749.02 713.943 136.068 180.162 -111.094 -10.393
