#Rx
# X(m), Y(m), Z(m), Distance(m), Power (dBm) Phase (deg)
1 680.405 617.891 137.33 129.005 -129.235 94.433
2 695.06 445.178 137.717 157.61 -119.021 12.3141
3 803.496 539.79 134.685 110.49 -114.323 -127.354
4 764.14 550.283 135.791 95.5112 -128.468 -15.4187
5 748.786 736.659 132.926 198.466 -110.168 -165.742
6 755.706 652.658 136.568 132.379 -115.136 93.613
7 826.958 365.296 130.223 228.375 -120.181 -101.393
8 789.913 531.015 135.491 106.824 -115.824 178.251
9 788.372 672.642 134.618 151.542 -119.86 -68.0011
10 746.886 608.29 136.824 105.949 -124.153 -131.232
