#Rx
# X(m), Y(m), Z(m), Distance(m), Power (dBm) Phase (deg)
1 693.833 459.637 188.724 184.848 -128.841 56.2891
2 696.325 430.262 189.151 201.988 -130.851 -164.018
3 727.321 576.594 187.605 147.218 -163.779 133.625
4 749.979 722.185 185.318 216.125 -115.188 77.127
5 757.012 636.815 187.914 164.803 -126.454 -78.5796
6 768.417 498.377 186.367 158.085 -130.39 -76.0116
7 771.672 458.857 186.412 177.744 -124.472 69.1348
8 773.412 437.737 186.774 191.07 -122.48 16.9444
9 804.332 466.513 185.761 180.719 -119.997 171.673
10 722.762 570.869 187.357 147.088 -131.15 -178.593
