#Rx
# X(m), Y(m), Z(m), Distance(m), Power (dBm) Phase (deg)
1 674.495 687.543 86.6132 152.722 -119.066 -154.914
2 691.104 491.795 88.2193 98.7602 -120.497 -56.6234
3 796.478 514.221 86.2048 80.9435 -110.864 61.0751
4 732.754 571.694 87.4823 48.3062 -113.849 41.8514
5 661.063 543.195 90.3107 98.8952 -119.774 139.085
6 659.259 543.239 90.4114 100.49 -118.888 -158.988
7 751.673 701.622 86.5393 148.413 -117.107 165.39
8 828.132 360.047 81.059 219.572 -116.84 32.4974
9 810.789 437.628 85.2137 144.896 -109.965 126.611
