#Rx
# X(m), Y(m), Z(m), Distance(m), Power (dBm) Phase (deg)
1 699.169 396.746 135.32 193.536 -137.425 -48.4574
2 748.779 557.241 135.049 92.6086 -133.44 -120.833
3 759.162 540.85 134.663 95.0245 -131.022 -132.651
4 759.253 609.608 136.052 106.697 -117.614 -0.343995
5 749.935 709.849 134.358 175.794 -109.393 154.216
6 810.983 436.758 133.253 166.263 -117.956 -171.959
7 780.447 573.357 135.328 99.8881 -114.464 42.911
8 719.391 565.641 134.914 96.311 -127.751 47.3756
9 716.83 561.667 134.918 96.9046 -132.123 172.262
10 715.585 559.737 134.842 97.2 -137.296 179.622
