#Rx
# X(m), Y(m), Z(m), Distance(m), Power (dBm) Phase (deg)
1 681.291 607.444 188.887 166.915 -126.977 9.45078
2 697.95 411.115 187.66 213.401 -131.398 -90.3687
3 660.743 636.641 188.461 185.581 -133.641 -3.42791
4 768.966 540.615 187.019 147.587 -128.091 109.622
5 722.515 541.726 186.371 146.893 -134.133 138.735
6 809.608 442.912 185.395 195.366 -124.857 32.915
7 780.269 574.152 187.426 149.571 -137.443 87.6387
8 744.061 736.125 184.501 226.234 -115.647 84.3465
9 740.668 751.305 183.193 237.516 -121.425 148.733
10 725.092 820.981 149.764 282.929 -250 0
