#Rx
# X(m), Y(m), Z(m), Distance(m), Power (dBm) Phase (deg)
1 774.899 533.684 95.4611 65.8033 -106.792 -4.3449
2 749.069 556.98 95.8568 53.5067 -102.852 -92.1686
3 736.809 568.037 95.9045 54.7594 -98.3863 -40.0447
4 663.117 634.5 97.2083 124.138 -132.535 48.0229
5 728.938 541.572 94.9396 58.1217 -99.4412 -50.5196
6 767.369 511.089 94.937 74.807 -106.784 109.517
7 772.938 443.499 95.2405 130.68 -111.295 -154.343
8 758.202 672.87 95.9222 125.459 -116.274 -43.5499
9 795.637 505.406 94.9474 90.5133 -111.465 3.88574
10 715.231 559.188 95.6608 61.4079 -111.865 -20.4967
