#Rx
# X(m), Y(m), Z(m), Distance(m), Power (dBm) Phase (deg)
1 684.525 569.33 139.491 115.191 -123.426 -123.348
2 687.926 529.252 137.859 115.789 -131.832 -146.086
3 691.884 482.599 138.364 134.554 -118.126 70.8441
4 744.931 560.711 137.336 94.8209 -123.003 125.142
5 724.47 541.679 136.397 98.0376 -128.25 -125.32
6 675.585 542.848 139.154 120.788 -147.128 -170.285
7 763.011 563.995 137.456 96.527 -133.814 -108.128
8 772.676 446.672 136.731 149.767 -116.1 111.25
9 773.18 440.554 136.716 154.526 -114.634 133.328
10 749.656 711.097 136.287 177.863 -112.469 61.6883
