#Rx
# X(m), Y(m), Z(m), Distance(m), Power (dBm) Phase (deg)
1 698.978 399.001 96.8474 176.303 -155.311 -120.597
2 736.559 568.262 96.7661 55.6746 -98.2354 -97.0879
3 711.095 591.228 97.8412 72.4819 -117.25 174.024
4 823.371 539.315 94.0384 95.2255 -133.692 127.48
5 750.061 721.183 94.8428 169.511 -109.488 166.26
6 815.828 415.088 93.7511 168.819 -119.879 -8.0693
7 752.355 699.025 96.137 149.14 -123.67 -64.1945
8 738.963 758.932 92.0485 205.124 -119.207 -123.239
9 788.355 672.616 95.5352 131.478 -132.359 52.4484
