#Rx
# X(m), Y(m), Z(m), Distance(m), Power (dBm) Phase (deg)
1 688.904 517.727 87.9126 84.304 -117.519 50.5719
2 789.644 520.385 86.6612 73.6363 -115.948 -120.077
3 670.321 628.003 88.5539 111.671 -131.609 116.27
4 741.745 541.266 86.5227 48.0103 -110.258 53.7954
5 762.9 565.335 87.4717 48.3159 -123.378 -4.86842
6 765.369 535.369 86.6593 54.1276 -112.567 -61.2169
7 825.131 373.47 82.2135 206.471 -133.584 29.7901
8 786.656 545.584 86.9298 61.9083 -113.139 134.287
9 773.429 604.754 87.7509 69.2874 -106.429 161.028
10 786.7 670.049 86.1048 125.166 -136.507 22.0875
