#Rx
# X(m), Y(m), Z(m), Distance(m), Power (dBm) Phase (deg)
1 693.833 459.637 143.893 151.888 -118.107 -164.904
2 696.325 430.262 144.32 172.227 -129.969 -134.225
3 727.321 576.594 142.775 103.318 -129.473 64.4008
4 749.979 722.185 140.487 189.517 -123.746 143.423
5 757.012 636.815 143.083 127.02 -113.374 68.0028
6 768.417 498.377 141.536 118.758 -118.534 133.684
7 771.672 458.857 141.581 143.88 -114.589 -51.2052
8 773.412 437.737 141.943 159.95 -116.432 -168.637
9 804.332 466.513 140.93 147.737 -120.328 -153.139
10 722.762 570.869 142.526 103.241 -132.752 -10.6198
