#Rx
# X(m), Y(m), Z(m), Distance(m), Power (dBm) Phase (deg)
1 687.89 529.678 188.016 159.575 -126.161 -160.435
2 748.641 738.42 184.113 227.79 -117.014 -111.621
3 749.986 722.096 185.325 216.063 -117.935 -167.352
4 824.698 375.408 182.22 244.505 -120.014 91.0208
5 815.946 414.559 184.424 214.898 -122.429 -93.5503
6 753.613 693.395 186.865 196.689 -119.203 56.0403
7 748.129 717.929 185.862 213.288 -113.702 3.98035
8 736.852 768.372 181.88 250.844 -118.525 59.0036
9 768.409 641.677 187.843 168.2 -131.236 -36.1533
