#Rx
# X(m), Y(m), Z(m), Distance(m), Power (dBm) Phase (deg)
1 698.139 408.887 97.8037 167.874 -250 0
2 728.54 541.582 96.6507 59.7814 -99.1421 -158.538
3 760.665 592.472 98.0959 66.0136 -103.449 -40.2659
4 762.967 564.529 97.6228 57.83 -103.705 113.082
5 800.968 481.559 96.0545 109.727 -105.891 91.9659
6 792.054 521.438 96.6719 80.8704 -104.98 167.939
7 785.328 551.522 97.3128 67.9739 -104.581 174.12
8 724.546 823.422 59.9647 264.869 -250 0
9 722.785 831.301 59.9247 272.847 -250 0
10 715.327 559.337 97.2352 62.7265 -105.189 -3.97466
