#Rx
# X(m), Y(m), Z(m), Distance(m), Power (dBm) Phase (deg)
1 677.72 649.526 138.322 147.832 -122.777 -93.653
2 699.114 397.399 137.547 194.08 -139.764 -48.7222
3 739.086 541.33 136.628 96.1874 -125.505 83.7756
4 722.657 541.723 136.413 98.4592 -129.669 18.8423
5 768.256 500.33 136.365 113.411 -115.228 -90.4845
6 771.061 466.276 136.544 135.1 -119.609 152.806
7 773.427 437.561 136.777 156.931 -112.142 -78.8124
8 758.166 673.027 137.194 147.938 -128.359 -158.433
9 724.314 824.459 99.804 271.459 -250 0
10 798.43 688.244 134.575 166.34 -113.996 82.7547
