#Rx
# X(m), Y(m), Z(m), Distance(m), Power (dBm) Phase (deg)
1 679.866 624.237 110.826 114.74 -131.615 147.551
2 685.887 553.276 111.149 91.4781 -120.111 -28.908
3 824.69 488.777 106.623 123.99 -118.022 -46.7865
4 749.202 541.088 108.852 69.0464 -105.903 -131.532
5 667.524 543.041 112.05 106.208 -117.037 57.5024
6 757.144 635.208 110.161 101.761 -109.541 66.3275
7 759.766 603.378 110.157 81.5197 -109.299 -178.277
8 768.93 492.149 108.606 97.45 -113.192 81.8443
9 724.823 822.186 71.8959 264.674 -250 0
10 799.242 689.504 106.676 154.018 -134.694 -116.314
