#Rx
# X(m), Y(m), Z(m), Distance(m), Power (dBm) Phase (deg)
1 681.539 604.522 188.95 166.067 -126.734 -55.1112
2 684.086 574.501 189.589 160.224 -125.525 -117.333
3 685.962 552.396 188.884 158.378 -124.301 38.8183
4 827.427 486.308 184.061 179.147 -121.603 -11.9087
5 801.757 509.46 185.979 161.996 -124.786 -9.92582
6 790.749 519.389 186.702 156.33 -126.492 128.645
7 739.443 565.661 187.38 145.115 -139.548 -91.9441
8 664.256 633.473 188.635 182.836 -135.193 -31.7732
9 797.391 497.564 186.242 164.907 -125.925 79.0348
10 722.448 832.806 149.804 294.086 -250 0
