#Rx
# X(m), Y(m), Z(m), Distance(m), Power (dBm) Phase (deg)
1 687.989 528.508 137.971 116.048 -113.182 168.716
2 748.756 737.031 134.228 199.392 -112.632 68.0942
3 750.103 720.678 135.443 185.656 -121.632 -20.4195
4 824.387 376.801 132.325 218.565 -117.837 -153.842
5 815.654 415.865 134.486 184.617 -111.499 22.8198
6 753.323 694.693 136.835 164.592 -111.969 52.4673
7 747.866 719.105 135.771 184.427 -110.978 52.6004
8 736.604 769.485 131.794 227.907 -118.959 85.4736
9 767.807 640.743 137.862 126.824 -114.246 113.476
