#Rx
# X(m), Y(m), Z(m), Distance(m), Power (dBm) Phase (deg)
1 694.248 454.747 88.8004 126.088 -135.003 58.2867
2 696.635 426.61 88.8935 149.6 -250 0
3 724.429 579.202 87.6498 53.576 -112.325 -37.3422
4 750.336 717.845 85.6772 163.695 -110.771 -103.752
5 757.348 632.734 87.9531 86.5036 -107.207 -129.656
6 768.751 494.317 86.3718 82.1856 -103.092 77.1318
7 771.926 455.776 86.4158 116.023 -106.574 -33.9313
8 773.427 437.561 86.7774 133.049 -105.34 70.6281
9 803.463 470.398 85.821 114.914 -106.169 -38.8259
10 721.41 568.772 87.2706 51.8066 -107.673 72.7654
