#Rx
# X(m), Y(m), Z(m), Distance(m), Power (dBm) Phase (deg)
1 687.989 528.508 102.315 89.0621 -115.719 45.0534
2 748.756 737.031 98.5723 185.712 -111.002 -24.2528
3 750.103 720.678 99.7866 170.626 -109.734 29.7221
4 824.387 376.801 96.6693 206.49 -133.537 95.6988
5 815.654 415.865 98.8302 169.696 -110.523 104.374
6 753.323 694.693 101.179 147.093 -111.461 -137.571
7 747.866 719.105 100.115 169.218 -112.559 14.9152
8 736.604 769.485 96.1383 216.441 -112.526 -84.2678
9 767.807 640.743 102.206 102.747 -109.305 -114.865
