#Rx
# X(m), Y(m), Z(m), Distance(m), Power (dBm) Phase (deg)
1 682.676 591.126 189.379 162.927 -126.834 -158.022
2 695.632 438.432 189.056 196.946 -128.67 -153.838
3 697.457 416.921 188.07 209.789 -134.542 36.9099
4 781.532 540.315 186.944 150.024 -129.64 157.808
5 761.612 580.976 187.758 147.57 -132.696 45.2701
6 762.634 568.574 187.51 146.19 -132.25 133.935
7 763.831 554.037 187.382 146.073 -131.613 114.654
8 737.393 765.954 182.166 248.98 -117.361 122.691
9 723.269 829.137 149.664 290.569 -250 0
10 715.729 559.961 186.927 147.542 -146.58 23.6876
