#Rx
# X(m), Y(m), Z(m), Distance(m), Power (dBm) Phase (deg)
1 685.864 553.555 138.788 113.687 -128.181 -88.7712
2 747.118 558.739 137.162 94.6537 -123.941 136.127
3 696.317 604.556 139.089 117.382 -127.162 -135.469
4 664.686 633.085 138.499 145.481 -123.434 -158.502
5 815.462 416.725 134.487 183.875 -112.177 -98.9926
6 775.738 594.424 137.748 105.532 -115.279 99.4935
7 772.294 609.829 137.821 110.707 -119.29 72.6227
8 755.021 687.099 136.97 158.605 -124.732 57.8729
9 729.689 800.418 99.764 247.676 -250 0
