#Rx
# X(m), Y(m), Z(m), Distance(m), Power (dBm) Phase (deg)
1 679.313 630.758 133.041 132.843 -118.061 -165.68
2 685.474 558.151 133.621 109.387 -124.666 -176.717
3 828.547 485.298 128.641 140.75 -129.093 20.3145
4 754.405 540.964 131.205 91.0907 -123.09 -64.9496
5 670.867 542.961 134.101 119.673 -128.243 -94.2286
6 756.698 640.621 132.394 121.206 -114.723 52.1817
7 759.286 609.21 132.512 103.422 -118.649 -138.266
8 768.466 497.774 130.885 110.384 -118.813 -19.9394
9 725.533 819.005 94.1811 264.898 -250 0
10 802.403 694.408 128.452 169.206 -114.534 149.353
