#Rx
# X(m), Y(m), Z(m), Distance(m), Power (dBm) Phase (deg)
1 688.052 527.77 100.923 88.3591 -119.358 -130.216
2 698.961 399.205 100.566 177.304 -147.703 -59.9461
3 784.158 525.333 99.7155 76.9987 -103.927 -162.964
4 749.612 726.64 98.0694 175.691 -117.849 85.0895
5 758.589 617.668 101.256 83.2681 -106.992 171.37
6 772.064 454.101 99.4602 123.027 -110.799 -146.945
7 817.004 409.827 97.178 174.873 -118.389 27.05
8 752.499 698.381 99.6303 149.842 -117.819 12.7665
9 722.559 832.31 62.6846 274.059 -250 0
