#Rx
# X(m), Y(m), Z(m), Distance(m), Power (dBm) Phase (deg)
1 679.313 630.758 88.5242 107.564 -133.123 -8.95274
2 685.474 558.151 89.1038 76.3975 -125.677 -132.055
3 828.547 485.298 84.1238 118.848 -116.008 -23.2222
4 754.405 540.964 86.6883 48.8218 -112.586 -106.195
5 670.867 542.961 89.5841 90.2769 -125.083 100.116
6 756.698 640.621 87.8771 93.1191 -107.09 80.3012
7 759.286 609.21 87.9948 68.3064 -105.793 -84.5837
8 768.466 497.774 86.3678 79.3673 -105.223 179.812
9 725.533 819.005 49.664 259.911 -250 0
10 802.403 694.408 83.9349 151.532 -250 0
