#Rx
# X(m), Y(m), Z(m), Distance(m), Power (dBm) Phase (deg)
1 698.093 409.429 87.5413 164.296 -250 0
2 699.169 396.744 87.408 175.671 -141.258 36.9686
3 662.224 635.305 88.6152 121.712 -134.172 -25.0831
4 679.073 542.765 88.9095 83.2343 -108.963 84.7237
5 668.827 543.01 89.627 91.9952 -127.236 170.354
6 758.197 622.423 88.0525 78.2192 -107.919 105.935
7 817.208 408.914 84.0138 172.102 -140.784 139.075
8 795.225 507.252 86.2916 84.3867 -103.669 166.92
9 729.736 581.688 87.6637 52.6546 -121.006 -20.5252
