#Rx
# X(m), Y(m), Z(m), Distance(m), Power (dBm) Phase (deg)
1 689.504 510.652 103.794 96.8557 -118.25 -93.9236
2 694.732 449.043 104.9 137.225 -133.907 -107.717
3 749.423 728.937 100.769 178.729 -120.42 -31.2032
4 778.913 580.222 103.381 72.0816 -112.127 -64.0835
5 812.086 431.825 101.08 155.644 -125.665 -124.442
6 794.165 681.628 100.991 143.289 -131.8 -106.191
7 786.052 669.043 102.134 130.568 -129.99 -15.6599
8 771.89 647.076 103.333 109.318 -112.487 77.3229
9 718.489 564.242 102.814 66.4059 -109.939 8.07501
10 715.389 559.433 102.944 67.7341 -110.213 137.047
